time,seconds_elapsed,z,y,x
1737750704214828500,0.14182861328125,-0.204345703125,-0.570709228515625,-0.7918853759765625
1737750704224896800,0.151896728515625,-0.207489013671875,-0.567596435546875,-0.7949676513671875
1737750704234964700,0.16196484375,-0.2086029052734375,-0.562225341796875,-0.7975616455078125
1737750704245032400,0.172032470703125,-0.2086334228515625,-0.556671142578125,-0.7915496826171875
1737750704255100400,0.182100341796875,-0.206756591796875,-0.5548553466796875,-0.789306640625
1737750704265168600,0.192168701171875,-0.2069854736328125,-0.55712890625,-0.787506103515625
1737750704275237600,0.202237548828125,-0.2063751220703125,-0.5625152587890625,-0.7868499755859375
1737750704285305600,0.2123056640625,-0.2059173583984375,-0.5670166015625,-0.7943115234375
1737750704295373600,0.22237353515625,-0.21014404296875,-0.56402587890625,-0.8010406494140625
1737750704305441500,0.232441650390625,-0.2110595703125,-0.5600433349609375,-0.7977142333984375
1737750704315509500,0.242509521484375,-0.210693359375,-0.5612640380859375,-0.7960205078125
1737750704325577500,0.252577392578125,-0.208831787109375,-0.566009521484375,-0.7952880859375
1737750704335645700,0.262645751953125,-0.2093963623046875,-0.5709381103515625,-0.7944793701171875
1737750704345713700,0.272713623046875,-0.211395263671875,-0.572662353515625,-0.7957916259765625
1737750704355781600,0.28278173828125,-0.2091217041015625,-0.5717620849609375,-0.8040771484375
1737750704365849600,0.292849609375,-0.2092132568359375,-0.56597900390625,-0.80340576171875
1737750704375917600,0.30291748046875,-0.208404541015625,-0.5621337890625,-0.80047607421875
1737750704385985500,0.312985595703125,-0.2072906494140625,-0.5665435791015625,-0.8006591796875
1737750704396053500,0.323053466796875,-0.203216552734375,-0.5721282958984375,-0.8039703369140625
1737750704406121500,0.33312158203125,-0.200531005859375,-0.57159423828125,-0.7994384765625
1737750704416189700,0.343189697265625,-0.199676513671875,-0.5663909912109375,-0.79193115234375
1737750704426257700,0.353257568359375,-0.19873046875,-0.564117431640625,-0.7880706787109375
1737750704436325600,0.36332568359375,-0.2006378173828125,-0.566925048828125,-0.79058837890625
1737750704446393600,0.3733935546875,-0.1999359130859375,-0.56817626953125,-0.7929840087890625
1737750704456461600,0.383461669921875,-0.200958251953125,-0.5662078857421875,-0.7961273193359375
1737750704466529500,0.393529541015625,-0.203582763671875,-0.561859130859375,-0.7972259521484375
1737750704476597500,0.403597412109375,-0.2076263427734375,-0.5607452392578125,-0.79229736328125
1737750704486665500,0.41366552734375,-0.2117919921875,-0.5662384033203125,-0.789642333984375
1737750704496733700,0.423733642578125,-0.210601806640625,-0.5750885009765625,-0.7940673828125
1737750704506801700,0.4338017578125,-0.2089996337890625,-0.5781707763671875,-0.794647216796875
1737750704516869600,0.44386962890625,-0.210235595703125,-0.5767822265625,-0.7965850830078125
1737750704526937600,0.4539375,-0.206634521484375,-0.5755767822265625,-0.801300048828125
1737750704537005600,0.464005615234375,-0.2030487060546875,-0.5720977783203125,-0.803192138671875
1737750704547073500,0.474073486328125,-0.201873779296875,-0.5644073486328125,-0.800567626953125
1737750704557141500,0.4841416015625,-0.2030181884765625,-0.55804443359375,-0.7996826171875
1737750704567209500,0.49420947265625,-0.200714111328125,-0.5573883056640625,-0.79669189453125
1737750704577277700,0.504277587890625,-0.20208740234375,-0.559417724609375,-0.791961669921875
1737750704587345700,0.514345703125,-0.2031707763671875,-0.562347412109375,-0.7887725830078125
1737750704597413600,0.52441357421875,-0.2063140869140625,-0.5640411376953125,-0.786712646484375
1737750704607481600,0.534481689453125,-0.2075347900390625,-0.5658111572265625,-0.783721923828125
1737750704617549600,0.544549560546875,-0.2053375244140625,-0.5675048828125,-0.7872314453125
1737750704627617500,0.554617431640625,-0.205108642578125,-0.56854248046875,-0.7902374267578125
1737750704637685500,0.564685546875,-0.207794189453125,-0.5699310302734375,-0.7934722900390625
1737750704647753500,0.57475341796875,-0.20721435546875,-0.5741729736328125,-0.7969207763671875
1737750704657821400,0.584821533203125,-0.2042999267578125,-0.5771484375,-0.801055908203125
1737750704667889700,0.5948896484375,-0.2027740478515625,-0.5741119384765625,-0.802276611328125
1737750704677957600,0.60495751953125,-0.203643798828125,-0.5688934326171875,-0.7993316650390625
1737750704688025600,0.615025634765625,-0.2056884765625,-0.566009521484375,-0.8010711669921875
1737750704698093300,0.62509326171875,-0.2085723876953125,-0.56427001953125,-0.799163818359375
1737750704708161500,0.63516162109375,-0.2137451171875,-0.56317138671875,-0.797027587890625
1737750704718229500,0.6452294921875,-0.21978759765625,-0.5653228759765625,-0.798126220703125
1737750704728297500,0.65529736328125,-0.2195892333984375,-0.567840576171875,-0.7978057861328125
1737750704738365400,0.665365478515625,-0.219482421875,-0.5701141357421875,-0.7980499267578125
1737750704748433700,0.67543359375,-0.21441650390625,-0.5732421875,-0.8014373779296875
1737750704758501600,0.685501708984375,-0.208282470703125,-0.5725250244140625,-0.802001953125
1737750704768569300,0.6955693359375,-0.201385498046875,-0.5713958740234375,-0.7982025146484375
1737750704778638600,0.705638671875,-0.200653076171875,-0.5651092529296875,-0.7967376708984375
1737750704788706600,0.71570654296875,-0.2001190185546875,-0.5637359619140625,-0.797454833984375
1737750704798774500,0.7257744140625,-0.1966400146484375,-0.566070556640625,-0.7928466796875
1737750704808842500,0.735842529296875,-0.1966094970703125,-0.569915771484375,-0.7928466796875
1737750704818910700,0.74591064453125,-0.199981689453125,-0.5737762451171875,-0.7943115234375
1737750704828978400,0.755978515625,-0.2044830322265625,-0.5753173828125,-0.794158935546875
1737750704839046400,0.76604638671875,-0.206390380859375,-0.57440185546875,-0.789642333984375
1737750704849114400,0.7761142578125,-0.2053985595703125,-0.568939208984375,-0.7861785888671875
1737750704859182600,0.7861826171875,-0.2060089111328125,-0.5644073486328125,-0.78277587890625
1737750704869250600,0.79625048828125,-0.203826904296875,-0.5627288818359375,-0.78204345703125
1737750704879318500,0.806318603515625,-0.1998443603515625,-0.566162109375,-0.7885894775390625
1737750704889386500,0.816386474609375,-0.1933135986328125,-0.5666351318359375,-0.791839599609375
1737750704899454700,0.826454833984375,-0.1904144287109375,-0.5651397705078125,-0.796142578125
1737750704909522400,0.8365224609375,-0.188140869140625,-0.5616302490234375,-0.7995147705078125
1737750704919590400,0.84659033203125,-0.18914794921875,-0.563720703125,-0.7960205078125
1737750704929658400,0.856658447265625,-0.1930694580078125,-0.57196044921875,-0.795379638671875
1737750704939726600,0.8667265625,-0.1967315673828125,-0.57952880859375,-0.7968597412109375
1737750704949794600,0.876794677734375,-0.202972412109375,-0.57989501953125,-0.795135498046875
1737750704959862500,0.886862548828125,-0.2077178955078125,-0.5762786865234375,-0.7926483154296875
1737750704969930500,0.896930419921875,-0.2096405029296875,-0.5762939453125,-0.79736328125
1737750704979998500,0.90699853515625,-0.20989990234375,-0.5792388916015625,-0.800628662109375
1737750704990066400,0.91706640625,-0.209869384765625,-0.5776519775390625,-0.811279296875
1737750705000134400,0.927134521484375,-0.2073516845703125,-0.565704345703125,-0.8059844970703125
1737750705010202400,0.937202392578125,-0.2125244140625,-0.560791015625,-0.7902069091796875
1737750705020270600,0.9472705078125,-0.2180023193359375,-0.57196044921875,-0.7873382568359375
1737750705030338600,0.957338623046875,-0.2198333740234375,-0.5860595703125,-0.7897796630859375
1737750705040406500,0.967406494140625,-0.2218017578125,-0.5889129638671875,-0.789154052734375
1737750705050474500,0.977474609375,-0.22216796875,-0.5787353515625,-0.77972412109375
1737750705060542500,0.98754248046875,-0.2220611572265625,-0.568878173828125,-0.779541015625
1737750705070610400,0.9976103515625,-0.215911865234375,-0.5686492919921875,-0.7847747802734375
1737750705080678400,1.007678466796875,-0.211395263671875,-0.5702972412109375,-0.780914306640625
1737750705090746400,1.017746337890625,-0.213531494140625,-0.5724334716796875,-0.785736083984375
1737750705100814600,1.027814697265625,-0.211151123046875,-0.573272705078125,-0.7948455810546875
1737750705110882600,1.037882568359375,-0.2067413330078125,-0.57037353515625,-0.7921142578125
1737750705120950500,1.047950439453125,-0.2093658447265625,-0.5648651123046875,-0.786285400390625
1737750705131018500,1.0580185546875,-0.2118377685546875,-0.5650634765625,-0.789794921875
1737750705141086500,1.06808642578125,-0.212371826171875,-0.576324462890625,-0.795654296875
1737750705151154400,1.078154541015625,-0.2159271240234375,-0.583343505859375,-0.8040924072265625
1737750705161222400,1.088222412109375,-0.217987060546875,-0.576568603515625,-0.81280517578125
1737750705171290400,1.098290283203125,-0.2164306640625,-0.56695556640625,-0.823699951171875
1737750705181358600,1.108358642578125,-0.2188568115234375,-0.55316162109375,-0.808990478515625
1737750705191426600,1.118426513671875,-0.2256011962890625,-0.5459747314453125,-0.7868194580078125
1737750705201494500,1.12849462890625,-0.231842041015625,-0.558074951171875,-0.7833251953125
1737750705211562800,1.138562744140625,-0.233184814453125,-0.5765838623046875,-0.790130615234375
1737750705221630500,1.14863037109375,-0.2346649169921875,-0.5807342529296875,-0.7845306396484375
1737750705231698400,1.158698486328125,-0.234954833984375,-0.570770263671875,-0.779876708984375
1737750705241766400,1.168766357421875,-0.232177734375,-0.5638427734375,-0.77581787109375
1737750705251834600,1.178834716796875,-0.2278900146484375,-0.5645904541015625,-0.772216796875
1737750705261902600,1.188902587890625,-0.224639892578125,-0.56964111328125,-0.772796630859375
1737750705271970600,1.198970458984375,-0.22540283203125,-0.56976318359375,-0.7678375244140625
1737750705282038500,1.20903857421875,-0.2278289794921875,-0.5628204345703125,-0.7630462646484375
1737750705292106800,1.219106689453125,-0.2273712158203125,-0.557586669921875,-0.7545623779296875
1737750705302174500,1.229174560546875,-0.2201690673828125,-0.565277099609375,-0.7421417236328125
1737750705312242400,1.239242431640625,-0.220245361328125,-0.5944061279296875,-0.7173614501953125
1737750705322310400,1.249310302734375,-0.21575927734375,-0.619873046875,-0.7178497314453125
1737750705332378600,1.259378662109375,-0.1950531005859375,-0.5967254638671875,-0.72357177734375
1737750705342446600,1.269446533203125,-0.1966705322265625,-0.5787811279296875,-0.69964599609375
1737750705352514600,1.2795146484375,-0.191802978515625,-0.5794525146484375,-0.6765594482421875
1737750705362582500,1.28958251953125,-0.1879730224609375,-0.594024658203125,-0.66552734375
1737750705372651500,1.299651611328125,-0.18560791015625,-0.6078948974609375,-0.6502685546875
1737750705382719500,1.309719482421875,-0.18719482421875,-0.614532470703125,-0.626007080078125
1737750705392787500,1.319787353515625,-0.2048492431640625,-0.616943359375,-0.6048736572265625
1737750705402855700,1.329855712890625,-0.2344970703125,-0.61865234375,-0.5922088623046875
1737750705412923600,1.339923583984375,-0.2564544677734375,-0.6114349365234375,-0.5774078369140625
1737750705422991600,1.34999169921875,-0.283294677734375,-0.60760498046875,-0.5689544677734375
1737750705433059300,1.360059326171875,-0.3140106201171875,-0.6088714599609375,-0.59295654296875
1737750705443127600,1.37012744140625,-0.3397369384765625,-0.6079864501953125,-0.620635986328125
1737750705453195500,1.380195556640625,-0.365234375,-0.610321044921875,-0.6319580078125
1737750705463263500,1.390263427734375,-0.3862152099609375,-0.6160888671875,-0.6463775634765625
1737750705473331500,1.40033154296875,-0.3902130126953125,-0.62744140625,-0.67218017578125
1737750705483399700,1.410399658203125,-0.3831939697265625,-0.6380157470703125,-0.6893157958984375
1737750705493467600,1.420467529296875,-0.35113525390625,-0.6452178955078125,-0.69940185546875
1737750705503535600,1.43053564453125,-0.3377838134765625,-0.668365478515625,-0.6975250244140625
1737750705513603300,1.440603271484375,-0.321990966796875,-0.7099761962890625,-0.724945068359375
1737750705523671600,1.450671630859375,-0.2938385009765625,-0.685546875,-0.817169189453125
1737750705533739500,1.460739501953125,-0.266693115234375,-0.639617919921875,-0.82794189453125
1737750705543807500,1.470807373046875,-0.267730712890625,-0.605682373046875,-0.844482421875
1737750705553875500,1.48087548828125,-0.28265380859375,-0.59381103515625,-0.854522705078125
1737750705563943700,1.490943603515625,-0.29583740234375,-0.6049957275390625,-0.8377227783203125
1737750705574011600,1.50101171875,-0.3189239501953125,-0.628326416015625,-0.82293701171875
1737750705584079600,1.51107958984375,-0.34765625,-0.63775634765625,-0.801300048828125
1737750705594147300,1.521147216796875,-0.3763427734375,-0.62701416015625,-0.772552490234375
1737750705604215600,1.531215576171875,-0.3990936279296875,-0.615203857421875,-0.736236572265625
1737750705614283500,1.541283447265625,-0.4054718017578125,-0.6215667724609375,-0.7142486572265625
1737750705624351500,1.5513515625,-0.4036712646484375,-0.6505889892578125,-0.704559326171875
1737750705634419500,1.56141943359375,-0.3969573974609375,-0.684173583984375,-0.702911376953125
1737750705644488200,1.57148828125,-0.39056396484375,-0.7042083740234375,-0.7078094482421875
1737750705654556200,1.58155615234375,-0.3694305419921875,-0.695037841796875,-0.6914825439453125
1737750705664624000,1.5916240234375,-0.3487091064453125,-0.6555328369140625,-0.6993865966796875
1737750705674692000,1.601692138671875,-0.3348846435546875,-0.62530517578125,-0.7280731201171875
1737750705684760000,1.611760009765625,-0.3046417236328125,-0.6113433837890625,-0.7227630615234375
1737750705694828000,1.621828125,-0.2876434326171875,-0.61346435546875,-0.74090576171875
1737750705704896300,1.631896240234375,-0.26348876953125,-0.6224212646484375,-0.7675323486328125
1737750705714964200,1.641964111328125,-0.24530029296875,-0.6238250732421875,-0.7731170654296875
1737750705725032200,1.6520322265625,-0.2375335693359375,-0.62457275390625,-0.7586822509765625
1737750705735100000,1.662099853515625,-0.225433349609375,-0.622344970703125,-0.7440032958984375
1737750705745168100,1.672168212890625,-0.2267303466796875,-0.6273345947265625,-0.7315826416015625
1737750705755236000,1.682236083984375,-0.229949951171875,-0.6503448486328125,-0.7187347412109375
1737750705765304000,1.692303955078125,-0.2286834716796875,-0.6893768310546875,-0.7158203125
1737750705775372000,1.7023720703125,-0.23095703125,-0.7234344482421875,-0.7011566162109375
1737750705785440300,1.712440185546875,-0.24188232421875,-0.7386932373046875,-0.680755615234375
1737750705795508200,1.72250830078125,-0.2474822998046875,-0.754058837890625,-0.67388916015625
1737750705805576200,1.732576171875,-0.2431640625,-0.763458251953125,-0.670440673828125
1737750705815644000,1.742643798828125,-0.2479095458984375,-0.7621612548828125,-0.6571807861328125
1737750705825712000,1.752712158203125,-0.2451019287109375,-0.753814697265625,-0.6577911376953125
1737750705835780000,1.762780029296875,-0.24456787109375,-0.7611236572265625,-0.66650390625
1737750705845848000,1.77284814453125,-0.241485595703125,-0.7929840087890625,-0.6937713623046875
1737750705855916000,1.782916015625,-0.23577880859375,-0.841033935546875,-0.7024383544921875
1737750705865984300,1.792984375,-0.2296600341796875,-0.87774658203125,-0.6929779052734375
1737750705876052200,1.80305224609375,-0.2268829345703125,-0.8948822021484375,-0.6872406005859375
1737750705886120200,1.8131201171875,-0.2247314453125,-0.895050048828125,-0.6731719970703125
1737750705896188000,1.82318798828125,-0.2216339111328125,-0.874786376953125,-0.6496734619140625
1737750705906256100,1.833256103515625,-0.220703125,-0.842132568359375,-0.6168670654296875
1737750705916324000,1.843323974609375,-0.212738037109375,-0.819854736328125,-0.6075439453125
1737750705926392000,1.85339208984375,-0.203033447265625,-0.819122314453125,-0.61859130859375
1737750705936460000,1.8634599609375,-0.180572509765625,-0.82281494140625,-0.62713623046875
1737750705946528300,1.8735283203125,-0.146087646484375,-0.8133697509765625,-0.6533050537109375
1737750705956596200,1.88359619140625,-0.1285247802734375,-0.798065185546875,-0.698394775390625
1737750705966664200,1.893664306640625,-0.1090087890625,-0.78631591796875,-0.736236572265625
1737750705976732000,1.90373193359375,-0.094818115234375,-0.7885894775390625,-0.7510528564453125
1737750705986800000,1.913800048828125,-0.0941619873046875,-0.80242919921875,-0.750823974609375
1737750705996868000,1.9238681640625,-0.094940185546875,-0.8094635009765625,-0.732666015625
1737750706006936000,1.93393603515625,-0.0959014892578125,-0.8097076416015625,-0.6899566650390625
1737750706017004000,1.944004150390625,-0.1019744873046875,-0.8098602294921875,-0.64398193359375
1737750706027072300,1.954072265625,-0.106781005859375,-0.82171630859375,-0.596282958984375
1737750706037140200,1.96414013671875,-0.136016845703125,-0.8452911376953125,-0.5540618896484375
1737750706047208200,1.974208251953125,-0.1718902587890625,-0.85150146484375,-0.5188140869140625
1737750706057276000,1.98427587890625,-0.194732666015625,-0.8312225341796875,-0.4716644287109375
1737750706067344100,1.99434423828125,-0.207672119140625,-0.809173583984375,-0.425018310546875
1737750706077412000,2.004412109375,-0.22174072265625,-0.8035125732421875,-0.3963165283203125
1737750706087480000,2.01447998046875,-0.258453369140625,-0.8267059326171875,-0.38262939453125
1737750706097548000,2.024548095703125,-0.2857513427734375,-0.8641204833984375,-0.3694000244140625
1737750706107617000,2.034616943359375,-0.3013153076171875,-0.8821563720703125,-0.355133056640625
1737750706117685000,2.04468505859375,-0.3074798583984375,-0.8605804443359375,-0.3438262939453125
1737750706127753000,2.0547529296875,-0.3233795166015625,-0.8112945556640625,-0.3440093994140625
1737750706137821200,2.0648212890625,-0.3209381103515625,-0.765289306640625,-0.3716888427734375
1737750706147889200,2.07488916015625,-0.32342529296875,-0.75262451171875,-0.3877105712890625
1737750706157957000,2.08495703125,-0.318878173828125,-0.7740631103515625,-0.4205322265625
1737750706168025000,2.095025146484375,-0.3107147216796875,-0.8857879638671875,-0.446685791015625
1737750706178093300,2.10509326171875,-0.2715301513671875,-0.985809326171875,-0.4137420654296875
1737750706188161000,2.1151611328125,-0.253631591796875,-0.912506103515625,-0.4210968017578125
1737750706198229000,2.12522900390625,-0.281097412109375,-0.722991943359375,-0.4578857421875
1737750706208297000,2.135296875,-0.286895751953125,-0.5800323486328125,-0.531585693359375
1737750706218365200,2.145365234375,-0.3104705810546875,-0.59320068359375,-0.651031494140625
1737750706228433200,2.15543310546875,-0.3498077392578125,-0.712493896484375,-0.7376708984375
1737750706238501000,2.165501220703125,-0.3642578125,-0.83819580078125,-0.72845458984375
1737750706248569000,2.175569091796875,-0.3620452880859375,-0.8730621337890625,-0.61553955078125
1737750706258637300,2.18563720703125,-0.35467529296875,-0.825653076171875,-0.507171630859375
1737750706268705000,2.195705078125,-0.3418426513671875,-0.8013916015625,-0.460845947265625
1737750706278773000,2.20577294921875,-0.3404541015625,-0.809173583984375,-0.475433349609375
1737750706288841000,2.215841064453125,-0.3249969482421875,-0.8289947509765625,-0.5353851318359375
1737750706298909200,2.2259091796875,-0.29168701171875,-0.8273162841796875,-0.5887603759765625
1737750706308977200,2.23597705078125,-0.2613372802734375,-0.80206298828125,-0.6086273193359375
1737750706319045000,2.246045166015625,-0.2432708740234375,-0.78363037109375,-0.58636474609375
1737750706329113000,2.256113037109375,-0.234771728515625,-0.7885589599609375,-0.542205810546875
1737750706339181300,2.266181396484375,-0.2311248779296875,-0.7949371337890625,-0.5144805908203125
1737750706349249000,2.2762490234375,-0.2357635498046875,-0.8047637939453125,-0.4994354248046875
1737750706359317000,2.28631689453125,-0.2302093505859375,-0.817413330078125,-0.4763946533203125
1737750706369385000,2.296385009765625,-0.2343597412109375,-0.8210906982421875,-0.4558868408203125
1737750706379453200,2.306453125,-0.2448272705078125,-0.8097686767578125,-0.446807861328125
1737750706389521200,2.316521240234375,-0.2508087158203125,-0.79034423828125,-0.450927734375
1737750706399589000,2.326589111328125,-0.2645263671875,-0.7654876708984375,-0.469451904296875
1737750706409657000,2.336656982421875,-0.2870941162109375,-0.73504638671875,-0.4719696044921875
1737750706419725000,2.34672509765625,-0.3077392578125,-0.721343994140625,-0.44427490234375
1737750706429793000,2.35679296875,-0.3255462646484375,-0.7333831787109375,-0.4000091552734375
1737750706439861000,2.366861083984375,-0.3358612060546875,-0.751922607421875,-0.3850860595703125
1737750706449929000,2.376928955078125,-0.3442840576171875,-0.76324462890625,-0.4038238525390625
1737750706459997200,2.3869970703125,-0.3501434326171875,-0.7643890380859375,-0.4229888916015625
1737750706470065200,2.397065185546875,-0.3505096435546875,-0.7684478759765625,-0.4278717041015625
1737750706480133000,2.407133056640625,-0.34716796875,-0.790985107421875,-0.4278106689453125
1737750706490201000,2.417201171875,-0.3532257080078125,-0.8349151611328125,-0.4343719482421875
1737750706500269000,2.42726904296875,-0.364013671875,-0.8759918212890625,-0.4471435546875
1737750706510337000,2.4373369140625,-0.3685150146484375,-0.8811492919921875,-0.47052001953125
1737750706520405000,2.447405029296875,-0.384490966796875,-0.847991943359375,-0.4983367919921875
1737750706530473000,2.457472900390625,-0.4243621826171875,-0.838287353515625,-0.5021820068359375
1737750706540541200,2.467541259765625,-0.384552001953125,-0.75653076171875,-0.52276611328125
1737750706550609200,2.477609130859375,-0.363739013671875,-0.6865234375,-0.563079833984375
1737750706560677000,2.487677001953125,-0.3611297607421875,-0.6567535400390625,-0.60162353515625
1737750706570745000,2.4977451171875,-0.3643341064453125,-0.6445770263671875,-0.64984130859375
1737750706580813000,2.50781298828125,-0.3687744140625,-0.627899169921875,-0.7019805908203125
1737750706590881000,2.517881103515625,-0.378143310546875,-0.618896484375,-0.738037109375
1737750706600949000,2.527948974609375,-0.3886871337890625,-0.6197967529296875,-0.72076416015625
1737750706611017000,2.538016845703125,-0.393798828125,-0.6319580078125,-0.63958740234375
1737750706621085200,2.548085205078125,-0.399688720703125,-0.6650543212890625,-0.5402679443359375
1737750706631153200,2.558153076171875,-0.406494140625,-0.7039947509765625,-0.4711456298828125
1737750706641221000,2.56822119140625,-0.418182373046875,-0.727081298828125,-0.4395294189453125
1737750706651289000,2.5782890625,-0.4250946044921875,-0.7274932861328125,-0.4260406494140625
1737750706661356800,2.588356689453125,-0.421051025390625,-0.7141265869140625,-0.430633544921875
1737750706671424800,2.5984248046875,-0.411376953125,-0.699462890625,-0.448333740234375
1737750706681493000,2.608492919921875,-0.4042816162109375,-0.6909332275390625,-0.474578857421875
1737750706691561000,2.61856103515625,-0.3951568603515625,-0.6922760009765625,-0.493072509765625
1737750706701629000,2.62862890625,-0.3892974853515625,-0.704803466796875,-0.5069732666015625
1737750706711697000,2.63869677734375,-0.38055419921875,-0.7197723388671875,-0.5258331298828125
1737750706721765000,2.64876513671875,-0.375,-0.724517822265625,-0.555755615234375
1737750706731833000,2.6588330078125,-0.3649749755859375,-0.7149658203125,-0.5838165283203125
1737750706741900800,2.66890087890625,-0.35906982421875,-0.7002105712890625,-0.6073150634765625
1737750706751968800,2.67896875,-0.358612060546875,-0.6826934814453125,-0.6344451904296875
1737750706762037000,2.689037109375,-0.3550872802734375,-0.6698760986328125,-0.6592864990234375
1737750706772105000,2.69910498046875,-0.3614044189453125,-0.6666107177734375,-0.672454833984375
1737750706782173000,2.7091728515625,-0.36346435546875,-0.667694091796875,-0.66290283203125
1737750706792241000,2.719240966796875,-0.3568115234375,-0.6734161376953125,-0.63909912109375
1737750706802309000,2.72930908203125,-0.3512115478515625,-0.68402099609375,-0.6130218505859375
1737750706812377000,2.739377197265625,-0.351043701171875,-0.699462890625,-0.591949462890625
1737750706822444800,2.74944482421875,-0.3428497314453125,-0.712738037109375,-0.57940673828125
1737750706832513000,2.759512939453125,-0.3366851806640625,-0.7198944091796875,-0.57916259765625
1737750706842581000,2.7695810546875,-0.34130859375,-0.739654541015625,-0.570709228515625
1737750706852649000,2.77964892578125,-0.3220977783203125,-0.7622833251953125,-0.5475006103515625
1737750706862717000,2.789717041015625,-0.3135986328125,-0.73919677734375,-0.5619049072265625
1737750706872785200,2.79978515625,-0.310638427734375,-0.7206878662109375,-0.5586090087890625
1737750706882853000,2.80985302734375,-0.3267059326171875,-0.7313995361328125,-0.5406951904296875
1737750706892921000,2.819921142578125,-0.32257080078125,-0.753936767578125,-0.534881591796875
1737750706902988800,2.82998876953125,-0.3170623779296875,-0.7919464111328125,-0.53839111328125
1737750706913057000,2.84005712890625,-0.3192291259765625,-0.8361358642578125,-0.537017822265625
1737750706923125000,2.850125,-0.3141021728515625,-0.8668365478515625,-0.5305023193359375
1737750706933193000,2.86019287109375,-0.311798095703125,-0.88726806640625,-0.521820068359375
1737750706943261000,2.870260986328125,-0.32122802734375,-0.89996337890625,-0.5050811767578125
1737750706953329200,2.8803291015625,-0.3369598388671875,-0.8981170654296875,-0.482879638671875
1737750706963397000,2.890397216796875,-0.357147216796875,-0.874420166015625,-0.4605712890625
1737750706973465000,2.900465087890625,-0.3742523193359375,-0.8322906494140625,-0.439544677734375
1737750706983532800,2.91053271484375,-0.3798370361328125,-0.7906951904296875,-0.414031982421875
1737750706993601000,2.92060107421875,-0.382904052734375,-0.7683258056640625,-0.385498046875
1737750707003669000,2.9306689453125,-0.3792572021484375,-0.77642822265625,-0.3582611083984375
1737750707013737000,2.940737060546875,-0.3767547607421875,-0.8034515380859375,-0.3314056396484375
1737750707023805000,2.950804931640625,-0.378173828125,-0.825225830078125,-0.3038177490234375
1737750707033873200,2.960873046875,-0.375,-0.8275909423828125,-0.2734222412109375
1737750707043941000,2.970941162109375,-0.3782958984375,-0.7983245849609375,-0.2403106689453125
1737750707054009000,2.981009033203125,-0.3764190673828125,-0.73675537109375,-0.2113800048828125
1737750707064076800,2.991076904296875,-0.365325927734375,-0.6674957275390625,-0.1867828369140625
1737750707074145000,3.00114501953125,-0.34808349609375,-0.6190185546875,-0.1696929931640625
1737750707084213000,3.011212890625,-0.319854736328125,-0.608734130859375,-0.1582489013671875
1737750707094281000,3.021281005859375,-0.2906646728515625,-0.6448211669921875,-0.1502685546875
1737750707104349000,3.031348876953125,-0.2571563720703125,-0.707489013671875,-0.1395111083984375
1737750707114417200,3.041417236328125,-0.2269134521484375,-0.7612457275390625,-0.12237548828125
1737750707124485000,3.051485107421875,-0.2056427001953125,-0.788909912109375,-0.0971527099609375
1737750707134553900,3.061553955078125,-0.1890106201171875,-0.7862396240234375,-0.0707855224609375
1737750707144622000,3.0716220703125,-0.16912841796875,-0.761932373046875,-0.0513916015625
1737750707154690000,3.08168994140625,-0.1392669677734375,-0.7286224365234375,-0.0427703857421875
1737750707164758000,3.091758056640625,-0.1012420654296875,-0.7071990966796875,-0.0486297607421875
1737750707174826000,3.101825927734375,-0.0597991943359375,-0.7168121337890625,-0.080841064453125
1737750707184894200,3.111894287109375,-0.02313232421875,-0.7659912109375,-0.1402587890625
1737750707194962000,3.1219619140625,0.0233001708984375,-0.8292388916015625,-0.2125091552734375
1737750707205030000,3.13202978515625,0.0919342041015625,-0.868194580078125,-0.281890869140625
1737750707215097900,3.142097900390625,0.17303466796875,-0.880706787109375,-0.3521575927734375
1737750707225166000,3.152166015625,0.2503204345703125,-0.88427734375,-0.42181396484375
1737750707235234000,3.162234130859375,0.3313751220703125,-0.89788818359375,-0.49847412109375
1737750707245302000,3.172302001953125,0.4099884033203125,-0.944488525390625,-0.59033203125
1737750707255370000,3.182369873046875,0.4798431396484375,-1.0358428955078125,-0.7155303955078125
1737750707265438000,3.19243798828125,0.5167083740234375,-1.1561126708984375,-0.8712005615234375
1737750707275506000,3.202505859375,0.5342254638671875,-1.2597198486328125,-1.0321502685546875
1737750707285574000,3.212573974609375,0.5301666259765625,-1.286468505859375,-1.168975830078125
1737750707295641900,3.222641845703125,0.512054443359375,-1.198211669921875,-1.2533416748046875
1737750707305710000,3.2327099609375,0.467041015625,-1.0408477783203125,-1.272796630859375
1737750707315778000,3.242778076171875,0.412628173828125,-0.914459228515625,-1.2212371826171875
1737750707325846000,3.252845947265625,0.377716064453125,-0.875579833984375,-1.1195220947265625
1737750707335914000,3.2629140625,0.35418701171875,-0.9070587158203125,-0.998565673828125
1737750707345982000,3.27298193359375,0.3339080810546875,-0.978912353515625,-0.8902587890625
1737750707356050000,3.2830498046875,0.3034515380859375,-1.0587615966796875,-0.7920989990234375
1737750707366118000,3.293117919921875,0.2616729736328125,-1.1177825927734375,-0.694122314453125
1737750707376185900,3.303185791015625,0.20947265625,-1.1392059326171875,-0.59637451171875
1737750707386254000,3.313254150390625,0.146697998046875,-1.1165313720703125,-0.503021240234375
1737750707396322000,3.323322021484375,0.07379150390625,-1.065948486328125,-0.4277801513671875
1737750707406390000,3.33339013671875,0.014892578125,-1.0069122314453125,-0.3657379150390625
1737750707416458000,3.3434580078125,-0.0179595947265625,-0.952728271484375,-0.3213348388671875
1737750707426526000,3.35352587890625,-0.0315093994140625,-0.916717529296875,-0.305755615234375
1737750707436594000,3.363593994140625,-0.0292816162109375,-0.897125244140625,-0.314117431640625
1737750707446662000,3.373661865234375,-0.0123748779296875,-0.8976593017578125,-0.342193603515625
1737750707456729900,3.383729736328125,0.0111236572265625,-0.912567138671875,-0.378021240234375
1737750707466798000,3.393798095703125,0.0353240966796875,-0.929840087890625,-0.406982421875
1737750707476866000,3.403865966796875,0.0592498779296875,-0.9411773681640625,-0.4257965087890625
1737750707486934000,3.41393408203125,0.07708740234375,-0.946014404296875,-0.4261474609375
1737750707497002000,3.424001953125,0.090362548828125,-0.9490966796875,-0.4123382568359375
1737750707507070000,3.434070068359375,0.0935211181640625,-0.9543304443359375,-0.38641357421875
1737750707517138000,3.444137939453125,0.09393310546875,-0.96221923828125,-0.3595123291015625
1737750707527206000,3.454205810546875,0.0900115966796875,-0.9767303466796875,-0.336029052734375
1737750707537273900,3.46427392578125,0.0859222412109375,-0.99737548828125,-0.315216064453125
1737750707547342000,3.474342041015625,0.080078125,-1.014739990234375,-0.3006591796875
1737750707557410000,3.48441015625,0.0696258544921875,-1.03057861328125,-0.2894744873046875
1737750707567478000,3.49447802734375,0.058746337890625,-1.0502166748046875,-0.2826690673828125
1737750707577546000,3.5045458984375,0.0512847900390625,-1.082366943359375,-0.2772064208984375
1737750707587614000,3.514614013671875,0.049102783203125,-1.1224212646484375,-0.26678466796875
1737750707597682000,3.524681884765625,0.050537109375,-1.161834716796875,-0.252471923828125
1737750707607750000,3.53475,0.0461883544921875,-1.207061767578125,-0.2368927001953125
1737750707617817900,3.54481787109375,0.042938232421875,-1.25689697265625,-0.218597412109375
1737750707627886000,3.554885986328125,0.041412353515625,-1.3063812255859375,-0.189727783203125
1737750707637954000,3.5649541015625,0.0332794189453125,-1.33367919921875,-0.1556549072265625
1737750707648025000,3.575025146484375,0.0209808349609375,-1.341461181640625,-0.125
1737750707658093300,3.58509326171875,0.0065460205078125,-1.3425140380859375,-0.0888214111328125
1737750707668161300,3.595161376953125,-0.0132904052734375,-1.3316802978515625,-0.04864501953125
1737750707678229000,3.60522900390625,-0.0421600341796875,-1.3066253662109375,-0.0059661865234375
1737750707688297000,3.615296875,-0.0827789306640625,-1.2606201171875,0.0326385498046875
1737750707698365200,3.625365234375,-0.124755859375,-1.202911376953125,0.07037353515625
1737750707708433200,3.63543310546875,-0.1618499755859375,-1.13812255859375,0.1063232421875
1737750707718501000,3.645501220703125,-0.1987152099609375,-1.061370849609375,0.14251708984375
1737750707728569000,3.655569091796875,-0.2291717529296875,-0.97454833984375,0.176513671875
1737750707738637300,3.66563720703125,-0.247406005859375,-0.87078857421875,0.2109832763671875
1737750707748705000,3.675705078125,-0.228057861328125,-0.7557525634765625,0.249053955078125
1737750707758774000,3.68577392578125,-0.2110595703125,-0.6677703857421875,0.2790679931640625
1737750707768842200,3.69584228515625,-0.243316650390625,-0.6634063720703125,0.2836456298828125
1737750707778910200,3.70591015625,-0.3023223876953125,-0.723358154296875,0.272918701171875
1737750707788978200,3.715978271484375,-0.3238525390625,-0.8183441162109375,0.2516632080078125
1737750707799046100,3.726046142578125,-0.264801025390625,-0.8889312744140625,0.1787261962890625
1737750707809114000,3.736114013671875,-0.21484375,-0.9231414794921875,0.0455322265625
1737750707819182000,3.74618212890625,-0.1256256103515625,-0.95172119140625,-0.122711181640625
1737750707829250000,3.75625,-0.0598602294921875,-0.9958953857421875,-0.269866943359375
1737750707839318000,3.766318115234375,-0.037628173828125,-1.058624267578125,-0.37786865234375
1737750707849386200,3.77638623046875,-0.0607452392578125,-1.1183319091796875,-0.4448089599609375
1737750707859454200,3.7864541015625,-0.0978240966796875,-1.153289794921875,-0.47021484375
1737750707869522200,3.796522216796875,-0.1375579833984375,-1.1296844482421875,-0.4512176513671875
1737750707879590100,3.806590087890625,-0.1694793701171875,-1.06597900390625,-0.3973236083984375
1737750707889658000,3.816658203125,-0.1721649169921875,-1.0042572021484375,-0.3325347900390625
1737750707899726000,3.82672607421875,-0.1480712890625,-0.9536590576171875,-0.2810211181640625
1737750707909794000,3.8367939453125,-0.1030120849609375,-0.9003143310546875,-0.2582550048828125
1737750707919862000,3.846862060546875,-0.0426483154296875,-0.8471221923828125,-0.27813720703125
1737750707929930200,3.85693017578125,0.0175933837890625,-0.7981719970703125,-0.3306427001953125
1737750707939998200,3.866998291015625,0.072296142578125,-0.7557220458984375,-0.411468505859375
1737750707950066200,3.877066162109375,0.113616943359375,-0.727630615234375,-0.5128631591796875
1737750707960134100,3.887134033203125,0.1434478759765625,-0.716949462890625,-0.621124267578125
1737750707970202000,3.8972021484375,0.1712493896484375,-0.70941162109375,-0.719970703125
1737750707980270000,3.90727001953125,0.2036590576171875,-0.68902587890625,-0.8133392333984375
1737750707990338000,3.917338134765625,0.2342529296875,-0.6658935546875,-0.91522216796875
1737750708000406000,3.927406005859375,0.260162353515625,-0.638763427734375,-1.0262451171875
1737750708010474200,3.93747412109375,0.2794342041015625,-0.60791015625,-1.142822265625
1737750708020542200,3.947542236328125,0.2861175537109375,-0.570953369140625,-1.2533111572265625
1737750708030610200,3.957610107421875,0.2863616943359375,-0.4953155517578125,-1.326385498046875
1737750708040678100,3.96767822265625,0.2873077392578125,-0.3790435791015625,-1.316375732421875
1737750708050746000,3.97774609375,0.29510498046875,-0.2526092529296875,-1.214111328125
1737750708060814000,3.98781396484375,0.317169189453125,-0.1443023681640625,-1.0499267578125
1737750708070882000,3.997882080078125,0.35418701171875,-0.0683746337890625,-0.857269287109375
1737750708080950300,4.0079501953125,0.3948974609375,-0.0194854736328125,-0.6824798583984375
1737750708091018200,4.018018310546875,0.40972900390625,-0.0059356689453125,-0.5445404052734375
1737750708101086200,4.028086181640625,0.420989990234375,-0.0502777099609375,-0.431671142578125
1737750708111154200,4.038154296875,0.4537353515625,-0.1949920654296875,-0.3192596435546875
1737750708121222100,4.04822216796875,0.501312255859375,-0.499725341796875,-0.2054901123046875
1737750708131290000,4.0582900390625,0.5785369873046875,-1.1041259765625,-0.115814208984375
1737750708141358000,4.068358154296875,0.6433258056640625,-1.9742584228515625,0.0622100830078125
1737750708151426000,4.078426025390625,0.5826568603515625,-2.8437042236328125,0.405120849609375
1737750708161494300,4.088494384765625,0.490081787109375,-3.4359130859375,0.850860595703125
1737750708171562200,4.098562255859375,0.1423492431640625,-3.3919219970703125,1.3709869384765625
1737750708181630200,4.108630126953125,-0.2932891845703125,-2.7515106201171875,1.5969390869140625
1737750708191698200,4.1186982421875,-0.5914459228515625,-2.1556549072265625,1.4332427978515625
1737750708201766100,4.12876611328125,-0.6864471435546875,-1.93853759765625,1.268341064453125
1737750708211834000,4.138834228515625,-0.7725830078125,-2.0475616455078125,1.197113037109375
1737750708221902000,4.148902099609375,-0.867919921875,-2.1368408203125,1.216949462890625
1737750708231970000,4.158969970703125,-0.9581146240234375,-2.1068878173828125,1.231170654296875
1737750708242039300,4.169039306640625,-1.072662353515625,-1.894287109375,1.1934661865234375
1737750708252107300,4.179107177734375,-1.134765625,-1.5536041259765625,1.092132568359375
1737750708262175000,4.189175048828125,-1.11260986328125,-1.2952117919921875,0.9078826904296875
1737750708272243000,4.199242919921875,-1.0095062255859375,-1.1517791748046875,0.64678955078125
1737750708282311200,4.209311279296875,-0.887481689453125,-1.0337677001953125,0.3471832275390625
1737750708292379100,4.219379150390625,-0.7502288818359375,-0.8751373291015625,0.0601806640625
1737750708302447000,4.229447021484375,-0.59429931640625,-0.6858062744140625,-0.15673828125
1737750708312515300,4.239515380859375,-0.4509735107421875,-0.498626708984375,-0.2861328125
1737750708322583300,4.249583251953125,-0.3345947265625,-0.3308258056640625,-0.3417510986328125
1737750708332651300,4.2596513671875,-0.26312255859375,-0.1884765625,-0.3412017822265625
1737750708342719000,4.269718994140625,-0.2112579345703125,-0.0556793212890625,-0.3219451904296875
1737750708352787200,4.279787109375,-0.1641082763671875,0.084808349609375,-0.2427825927734375
1737750708362855200,4.289855224609375,-0.075469970703125,0.2222747802734375,-0.0897216796875
1737750708372923100,4.299923095703125,0.0003662109375,0.3069915771484375,0.0543975830078125
1737750708382991000,4.3099912109375,0.0149993896484375,0.28961181640625,0.1505126953125
1737750708393059300,4.320059326171875,0.0099334716796875,0.15460205078125,0.186859130859375
1737750708403127300,4.330127197265625,0.0067138671875,-0.0681610107421875,0.1609954833984375
1737750708413195000,4.340195068359375,0.015289306640625,-0.3277435302734375,0.0925140380859375
1737750708423263000,4.350262939453125,0.0382080078125,-0.5715179443359375,0.00921630859375
1737750708433331200,4.360331298828125,0.03216552734375,-0.7334442138671875,-0.0647430419921875
1737750708443399200,4.370399169921875,-0.02020263671875,-0.767913818359375,-0.12811279296875
1737750708453467100,4.380467041015625,-0.074127197265625,-0.695709228515625,-0.1811676025390625
1737750708463535000,4.39053515625,-0.1242828369140625,-0.5782623291015625,-0.22601318359375
1737750708473603300,4.400603271484375,-0.1701812744140625,-0.4815216064453125,-0.282989501953125
1737750708483671300,4.41067138671875,-0.22015380859375,-0.4575347900390625,-0.3451080322265625
1737750708493739000,4.420739013671875,-0.2727813720703125,-0.53094482421875,-0.387786865234375
1737750708503807000,4.430806884765625,-0.2983245849609375,-0.687103271484375,-0.3745269775390625
1737750708513875200,4.440875244140625,-0.29620361328125,-0.88568115234375,-0.2828216552734375
1737750708523943200,4.450943115234375,-0.2978363037109375,-1.1032562255859375,-0.1297149658203125
1737750708534011100,4.46101123046875,-0.3168182373046875,-1.356201171875,0.0452880859375
1737750708544079000,4.4710791015625,-0.35235595703125,-1.6294708251953125,0.231719970703125
1737750708554147300,4.481147216796875,-0.409881591796875,-1.8378753662109375,0.41021728515625
1737750708564215300,4.49121533203125,-0.4927978515625,-1.8835601806640625,0.55291748046875
1737750708574283000,4.501282958984375,-0.581298828125,-1.7612457275390625,0.6352996826171875
1737750708584351000,4.51135107421875,-0.638824462890625,-1.5862579345703125,0.6626739501953125
1737750708594419200,4.521419189453125,-0.6665496826171875,-1.4725189208984375,0.665008544921875
1737750708604487200,4.531487060546875,-0.6744842529296875,-1.448760986328125,0.6669769287109375
1737750708614555100,4.54155517578125,-0.67767333984375,-1.4899749755859375,0.6722564697265625
1737750708624623000,4.551623046875,-0.6736907958984375,-1.53948974609375,0.676055908203125
1737750708634691300,4.56169140625,-0.6586456298828125,-1.5405120849609375,0.6640472412109375
1737750708644759300,4.57175927734375,-0.638092041015625,-1.4750823974609375,0.621124267578125
1737750708654825500,4.581825439453125,-0.614776611328125,-1.379180908203125,0.541595458984375
1737750708664893400,4.5918935546875,-0.58062744140625,-1.288818359375,0.440460205078125
1737750708674961700,4.601961669921875,-0.53387451171875,-1.208709716796875,0.3391265869140625
1737750708685029600,4.612029541015625,-0.4794921875,-1.129547119140625,0.2509918212890625
1737750708695097300,4.622097412109375,-0.4280242919921875,-1.0520172119140625,0.182342529296875
1737750708705165300,4.632165283203125,-0.3859405517578125,-0.979248046875,0.13330078125
1737750708715233500,4.642233642578125,-0.358673095703125,-0.9121551513671875,0.1026763916015625
1737750708725301500,4.652301513671875,-0.3392486572265625,-0.854736328125,0.0878753662109375
1737750708735369500,4.662369384765625,-0.3200225830078125,-0.81256103515625,0.0853118896484375
1737750708745437400,4.6724375,-0.2967681884765625,-0.793701171875,0.0910491943359375
1737750708755505700,4.682505615234375,-0.273834228515625,-0.7899627685546875,0.1020355224609375
1737750708765573400,4.692573486328125,-0.2566986083984375,-0.798553466796875,0.118408203125
1737750708775641300,4.702641357421875,-0.247802734375,-0.815185546875,0.140045166015625
1737750708785709300,4.712709228515625,-0.242156982421875,-0.8335418701171875,0.1675567626953125
1737750708795777500,4.722777587890625,-0.242340087890625,-0.8444366455078125,0.201568603515625
1737750708805845500,4.732845458984375,-0.2457427978515625,-0.84222412109375,0.2352294921875
1737750708815913500,4.74291357421875,-0.24786376953125,-0.83489990234375,0.2610931396484375
1737750708825981400,4.7529814453125,-0.2443084716796875,-0.8310394287109375,0.2791290283203125
1737750708836049700,4.763049560546875,-0.2407379150390625,-0.8324737548828125,0.290283203125
1737750708846117400,4.773117431640625,-0.2401275634765625,-0.8379058837890625,0.300018310546875
1737750708856185300,4.783185302734375,-0.239837646484375,-0.8416748046875,0.314697265625
1737750708866253300,4.79325341796875,-0.241058349609375,-0.84027099609375,0.337738037109375
1737750708876321500,4.803321533203125,-0.24176025390625,-0.8431243896484375,0.3587188720703125
1737750708886389500,4.813389404296875,-0.244537353515625,-0.8518524169921875,0.3681640625
1737750708896457500,4.82345751953125,-0.2504425048828125,-0.857879638671875,0.3670196533203125
1737750708906525400,4.833525390625,-0.2603912353515625,-0.8575592041015625,0.35302734375
1737750708916593700,4.84359375,-0.2707672119140625,-0.8388824462890625,0.3274993896484375
1737750708926661400,4.853661376953125,-0.2828369140625,-0.8001556396484375,0.2953643798828125
1737750708936729300,4.863729248046875,-0.3019866943359375,-0.75445556640625,0.260528564453125
1737750708946797300,4.87379736328125,-0.3209991455078125,-0.7157135009765625,0.2248077392578125
1737750708956865500,4.883865478515625,-0.3338775634765625,-0.69683837890625,0.1944580078125
1737750708966933500,4.89393359375,-0.3394012451171875,-0.7028045654296875,0.17041015625
1737750708977001500,4.90400146484375,-0.3412322998046875,-0.7197418212890625,0.1490936279296875
1737750708987069400,4.9140693359375,-0.3439483642578125,-0.738037109375,0.1256103515625
1737750708997137700,4.9241376953125,-0.3502349853515625,-0.7506866455078125,0.1077117919921875
1737750709007205400,4.934205322265625,-0.3609771728515625,-0.75286865234375,0.098541259765625
1737750709017273300,4.9442734375,-0.3646087646484375,-0.7424774169921875,0.09698486328125
1737750709027341300,4.95434130859375,-0.3659515380859375,-0.7232513427734375,0.10260009765625
1737750709037409500,4.964409423828125,-0.37445068359375,-0.704559326171875,0.1192626953125
1737750709047478500,4.974478515625,-0.3932342529296875,-0.7013092041015625,0.139739990234375
1737750709057546500,4.98454638671875,-0.41644287109375,-0.7188262939453125,0.1646881103515625
1737750709067614500,4.994614501953125,-0.43206787109375,-0.755706787109375,0.1924896240234375
1737750709077682400,5.004682373046875,-0.456787109375,-0.797393798828125,0.2178192138671875
1737750709087750400,5.01475048828125,-0.4972381591796875,-0.8110809326171875,0.2400360107421875
1737750709097818400,5.024818359375,-0.5446319580078125,-0.7973785400390625,0.244293212890625
1737750709107886600,5.034886474609375,-0.5896148681640625,-0.7890777587890625,0.2193756103515625
1737750709117954600,5.04495458984375,-0.616912841796875,-0.7897491455078125,0.1544952392578125
1737750709128022500,5.0550224609375,-0.674102783203125,-0.7307586669921875,0.0507049560546875
1737750709138090500,5.065090576171875,-0.75848388671875,-0.578887939453125,-0.04962158203125
1737750709148158500,5.075158447265625,-0.836639404296875,-0.371246337890625,-0.1150360107421875
1737750709158226400,5.085226318359375,-0.903472900390625,-0.19549560546875,-0.14715576171875
1737750709168294400,5.09529443359375,-0.932708740234375,-0.1109771728515625,-0.1475982666015625
1737750709178362400,5.1053623046875,-0.949432373046875,-0.1195068359375,-0.1263427734375
1737750709188430600,5.1154306640625,-0.970947265625,-0.173614501953125,-0.07867431640625
1737750709198498600,5.12549853515625,-1.00946044921875,-0.2229461669921875,-0.0041656494140625
1737750709208566500,5.13556640625,-1.04473876953125,-0.23699951171875,0.079620361328125
1737750709218634200,5.14563427734375,-1.07977294921875,-0.2037200927734375,0.146820068359375
1737750709228702500,5.155702392578125,-1.121612548828125,-0.1379852294921875,0.20208740234375
1737750709238770400,5.1657705078125,-1.1313934326171875,-0.07763671875,0.252349853515625
1737750709248838400,5.17583837890625,-1.112060546875,-0.0405731201171875,0.2951507568359375
1737750709258906400,5.18590625,-1.096832275390625,-0.0159759521484375,0.3241729736328125
1737750709268974600,5.195974609375,-1.087982177734375,-0.0002593994140625,0.3526763916015625
1737750709279042600,5.20604248046875,-1.0902252197265625,0.020172119140625,0.3909149169921875
1737750709289110500,5.216110595703125,-1.1134033203125,0.044708251953125,0.4200592041015625
1737750709299178200,5.22617822265625,-1.140472412109375,0.066741943359375,0.4337615966796875
1737750709309246500,5.23624658203125,-1.144561767578125,0.0745391845703125,0.4412994384765625
1737750709319314400,5.246314453125,-1.14447021484375,0.065399169921875,0.4421234130859375
1737750709329382400,5.25638232421875,-1.154541015625,0.058074951171875,0.446533203125
1737750709339450400,5.266450439453125,-1.159210205078125,0.075439453125,0.4732818603515625
1737750709349518600,5.2765185546875,-1.1638641357421875,0.1123046875,0.5187835693359375
1737750709359586600,5.286586669921875,-1.1751556396484375,0.1394195556640625,0.5727081298828125
1737750709369654500,5.296654541015625,-1.177490234375,0.14276123046875,0.61431884765625
1737750709379722200,5.30672216796875,-1.18511962890625,0.129608154296875,0.638427734375
1737750709389790500,5.31679052734375,-1.1889495849609375,0.1115570068359375,0.6522674560546875
1737750709399858400,5.3268583984375,-1.1781768798828125,0.097320556640625,0.6628875732421875
1737750709409927400,5.336927490234375,-1.1596527099609375,0.0868072509765625,0.6716461181640625
1737750709419995600,5.34699560546875,-1.145050048828125,0.0767364501953125,0.6867523193359375
1737750709430063400,5.3570634765625,-1.126983642578125,0.0597686767578125,0.705963134765625
1737750709440131300,5.36713134765625,-1.11187744140625,0.029327392578125,0.72344970703125
1737750709450199300,5.37719921875,-1.098175048828125,-0.0082550048828125,0.72991943359375
1737750709460267500,5.387267578125,-1.0903167724609375,-0.04296875,0.7271575927734375
1737750709470335500,5.39733544921875,-1.07904052734375,-0.066925048828125,0.7287445068359375
1737750709480403500,5.407403564453125,-1.07354736328125,-0.08306884765625,0.72442626953125
1737750709490471400,5.417471435546875,-1.0760345458984375,-0.094573974609375,0.7005157470703125
1737750709500539600,5.42753955078125,-1.06427001953125,-0.1031036376953125,0.67547607421875
1737750709510607400,5.437607421875,-1.0536956787109375,-0.1104736328125,0.649078369140625
1737750709520675300,5.44767529296875,-1.0460052490234375,-0.1262054443359375,0.616241455078125
1737750709530743300,5.457743408203125,-1.037872314453125,-0.146514892578125,0.5800628662109375
1737750709540811500,5.4678115234375,-1.0232391357421875,-0.163330078125,0.547027587890625
1737750709550879500,5.47787939453125,-1.009521484375,-0.1728515625,0.5165863037109375
1737750709560947500,5.487947509765625,-1,-0.17779541015625,0.4859619140625
1737750709571015400,5.498015380859375,-0.9832611083984375,-0.1869659423828125,0.451995849609375
1737750709581083600,5.508083740234375,-0.9546966552734375,-0.1984710693359375,0.41741943359375
1737750709591151400,5.5181513671875,-0.9273529052734375,-0.203948974609375,0.38067626953125
1737750709601219300,5.52821923828125,-0.904449462890625,-0.2025299072265625,0.3384857177734375
1737750709611287600,5.53828759765625,-0.8905029296875,-0.2049560546875,0.2906951904296875
1737750709621355500,5.54835546875,-0.8680267333984375,-0.2169342041015625,0.240203857421875
1737750709631423500,5.558423583984375,-0.8375091552734375,-0.2361297607421875,0.195831298828125
1737750709641491500,5.568491455078125,-0.806427001953125,-0.2610015869140625,0.15045166015625
1737750709651559000,5.578558837890625,-0.780487060546875,-0.288543701171875,0.0982818603515625
1737750709661627000,5.588626953125,-0.7577972412109375,-0.3164825439453125,0.0444793701171875
1737750709671694800,5.59869482421875,-0.7367401123046875,-0.3359222412109375,-0.0101165771484375
1737750709681762800,5.6087626953125,-0.7224884033203125,-0.3463287353515625,-0.0582427978515625
1737750709691830800,5.618830810546875,-0.707366943359375,-0.3505706787109375,-0.0979461669921875
1737750709701898800,5.628898681640625,-0.6957855224609375,-0.36175537109375,-0.132568359375
1737750709711966700,5.638966796875,-0.688140869140625,-0.3827056884765625,-0.1636810302734375
1737750709722035000,5.649034912109375,-0.679443359375,-0.4022674560546875,-0.187286376953125
1737750709732103000,5.65910302734375,-0.665740966796875,-0.41754150390625,-0.203125
1737750709742171000,5.6691708984375,-0.6557159423828125,-0.429595947265625,-0.216339111328125
1737750709752238800,5.67923876953125,-0.646484375,-0.4400482177734375,-0.2296142578125
1737750709762306800,5.689306884765625,-0.631591796875,-0.4568328857421875,-0.24176025390625
1737750709772374800,5.699374755859375,-0.61199951171875,-0.4827117919921875,-0.25555419921875
1737750709782443800,5.70944384765625,-0.591156005859375,-0.517547607421875,-0.26922607421875
1737750709792512000,5.719511962890625,-0.5624542236328125,-0.5610198974609375,-0.2815704345703125
1737750709802580000,5.729580078125,-0.5260009765625,-0.627532958984375,-0.285247802734375
1737750709812648000,5.73964794921875,-0.48333740234375,-0.7201690673828125,-0.271087646484375
1737750709822715600,5.749715576171875,-0.4415740966796875,-0.8258056640625,-0.2251434326171875
1737750709832784000,5.759783935546875,-0.406097412109375,-0.9364776611328125,-0.1277008056640625
1737750709842851800,5.769851806640625,-0.3726654052734375,-1.05169677734375,-0.00396728515625
1737750709852919800,5.779919921875,-0.3487548828125,-1.14593505859375,0.146453857421875
1737750709862987800,5.78998779296875,-0.338775634765625,-1.2033843994140625,0.3119659423828125
1737750709873056000,5.800055908203125,-0.3270263671875,-1.224395751953125,0.4788665771484375
1737750709883124000,5.8101240234375,-0.3178558349609375,-1.2113037109375,0.65692138671875
1737750709893192000,5.82019189453125,-0.3025665283203125,-1.1838836669921875,0.83294677734375
1737750709903259600,5.830259765625,-0.300079345703125,-1.1683807373046875,0.989166259765625
1737750709913327900,5.840327880859375,-0.3233642578125,-1.173126220703125,1.1418914794921875
1737750709923395800,5.850395751953125,-0.3894805908203125,-1.220794677734375,1.2669219970703125
1737750709933463800,5.8604638671875,-0.4819488525390625,-1.29278564453125,1.3323516845703125
1737750709943531800,5.87053173828125,-0.5691070556640625,-1.3317718505859375,1.33740234375
1737750709953600000,5.88060009765625,-0.6142120361328125,-1.2647247314453125,1.2916107177734375
1737750709963668000,5.89066796875,-0.616119384765625,-1.1147308349609375,1.17694091796875
1737750709973736000,5.90073583984375,-0.5835723876953125,-0.9630584716796875,0.99200439453125
1737750709983803600,5.9108037109375,-0.5244293212890625,-0.843536376953125,0.7704620361328125
1737750709993872000,5.920871826171875,-0.4535675048828125,-0.76556396484375,0.5494232177734375
1737750710003939800,5.93093994140625,-0.383941650390625,-0.7247161865234375,0.3526611328125
1737750710014007800,5.9410078125,-0.3308868408203125,-0.7152099609375,0.1992034912109375
1737750710024075800,5.95107568359375,-0.29296875,-0.7263031005859375,0.101043701171875
1737750710034144000,5.96114404296875,-0.2675018310546875,-0.7430267333984375,0.0513153076171875
1737750710044212000,5.9712119140625,-0.2599334716796875,-0.759429931640625,0.0375823974609375
1737750710054279700,5.98127978515625,-0.2679443359375,-0.7725830078125,0.0540008544921875
1737750710064347600,5.99134765625,-0.28631591796875,-0.7691650390625,0.0878753662109375
1737750710074415900,6.001415771484375,-0.3098602294921875,-0.750213623046875,0.12835693359375
1737750710084483800,6.01148388671875,-0.32415771484375,-0.7262725830078125,0.1650848388671875
1737750710094551800,6.0215517578125,-0.328338623046875,-0.7036895751953125,0.1928863525390625
1737750710104619800,6.031619873046875,-0.3220977783203125,-0.6932220458984375,0.209075927734375
1737750710114688000,6.04168798828125,-0.306427001953125,-0.692779541015625,0.2236785888671875
1737750710124756000,6.051755859375,-0.295257568359375,-0.6967620849609375,0.232452392578125
1737750710134823700,6.06182373046875,-0.282806396484375,-0.697479248046875,0.2294158935546875
1737750710144891600,6.0718916015625,-0.26483154296875,-0.693206787109375,0.21875
1737750710154960000,6.0819599609375,-0.2472381591796875,-0.7035980224609375,0.2042236328125
1737750710165027800,6.09202783203125,-0.2376861572265625,-0.7336883544921875,0.188812255859375
1737750710175095800,6.102095703125,-0.2317047119140625,-0.780670166015625,0.1884613037109375
1737750710185163800,6.112163818359375,-0.224761962890625,-0.830596923828125,0.2124176025390625
1737750710195232000,6.12223193359375,-0.2339324951171875,-0.8825836181640625,0.233489990234375
1737750710205300000,6.132300048828125,-0.25592041015625,-0.9315948486328125,0.2435150146484375
1737750710215367700,6.14236767578125,-0.263671875,-0.9720611572265625,0.2621307373046875
1737750710225435600,6.152435546875,-0.268798828125,-1.0064697265625,0.2665252685546875
1737750710235503900,6.16250390625,-0.288787841796875,-1.0324249267578125,0.2529449462890625
1737750710245571800,6.17257177734375,-0.3181304931640625,-1.0337677001953125,0.24493408203125
1737750710255639800,6.182639892578125,-0.346099853515625,-1.0208892822265625,0.2423858642578125
1737750710265707800,6.192707763671875,-0.358306884765625,-1.0089874267578125,0.248199462890625
1737750710275776000,6.20277587890625,-0.3593292236328125,-1.000396728515625,0.25079345703125
1737750710285844000,6.212843994140625,-0.3575439453125,-0.99560546875,0.232818603515625
1737750710295911700,6.22291162109375,-0.354034423828125,-0.9939117431640625,0.204620361328125
1737750710305980000,6.23297998046875,-0.34295654296875,-0.991302490234375,0.1892242431640625
1737750710316049000,6.243048828125,-0.3328094482421875,-0.9829864501953125,0.18243408203125
1737750710326116900,6.253116943359375,-0.3289031982421875,-0.9759674072265625,0.1692047119140625
1737750710336184800,6.263184814453125,-0.3253021240234375,-0.9678955078125,0.1534423828125
1737750710346252800,6.273252685546875,-0.3131256103515625,-0.9494781494140625,0.1444854736328125
1737750710356320800,6.28332080078125,-0.3126373291015625,-0.9237518310546875,0.13409423828125
1737750710366388700,6.293388671875,-0.3207244873046875,-0.896697998046875,0.1230621337890625
1737750710376456700,6.303456787109375,-0.3298797607421875,-0.8777008056640625,0.1231231689453125
1737750710386525000,6.31352490234375,-0.3324432373046875,-0.8776092529296875,0.12548828125
1737750710396593000,6.323593017578125,-0.341217041015625,-0.897064208984375,0.121551513671875
1737750710406660900,6.333660888671875,-0.3559417724609375,-0.9281463623046875,0.1168975830078125
1737750710416728800,6.343728759765625,-0.3635711669921875,-0.9580078125,0.1225433349609375
1737750710426796800,6.353796875,-0.3837890625,-0.9804534912109375,0.12762451171875
1737750710436864800,6.36386474609375,-0.409698486328125,-0.990997314453125,0.131683349609375
1737750710446932700,6.3739326171875,-0.441558837890625,-0.983673095703125,0.1337432861328125
1737750710457000700,6.384000732421875,-0.4749755859375,-0.9647674560546875,0.1190185546875
1737750710467069000,6.39406884765625,-0.498931884765625,-0.953369140625,0.0829315185546875
1737750710477137000,6.404136962890625,-0.5227203369140625,-0.9509735107421875,0.0294189453125
1737750710487204900,6.414204833984375,-0.5431365966796875,-0.9530181884765625,-0.0318603515625
1737750710497273000,6.424273193359375,-0.5576629638671875,-0.963409423828125,-0.08489990234375
1737750710507340800,6.4343408203125,-0.56268310546875,-0.98681640625,-0.1285552978515625
1737750710517408800,6.44440869140625,-0.56170654296875,-1.0132904052734375,-0.1622772216796875
1737750710527476700,6.454476806640625,-0.5676422119140625,-1.019683837890625,-0.18988037109375
1737750710537545000,6.464544921875,-0.58404541015625,-0.979217529296875,-0.200408935546875
1737750710547613000,6.474613037109375,-0.6009521484375,-0.8872528076171875,-0.2002410888671875
1737750710557681000,6.484680908203125,-0.6122283935546875,-0.7843170166015625,-0.19696044921875
1737750710567748900,6.494748779296875,-0.61083984375,-0.7073211669921875,-0.185943603515625
1737750710577817000,6.504817138671875,-0.618621826171875,-0.676483154296875,-0.1750335693359375
1737750710587884800,6.514884765625,-0.6161651611328125,-0.682281494140625,-0.15777587890625
1737750710597952800,6.524952880859375,-0.6028289794921875,-0.7128753662109375,-0.129486083984375
1737750710608020700,6.535020751953125,-0.5973358154296875,-0.74530029296875,-0.10205078125
1737750710618089000,6.5450888671875,-0.599853515625,-0.7708740234375,-0.07879638671875
1737750710628157000,6.555156982421875,-0.5947113037109375,-0.792633056640625,-0.050933837890625
1737750710638225000,6.565224853515625,-0.5903778076171875,-0.806793212890625,-0.0215606689453125
1737750710648292900,6.57529296875,-0.599273681640625,-0.810943603515625,-0.003265380859375
1737750710658360600,6.585360595703125,-0.6054840087890625,-0.8134002685546875,0.0091705322265625
1737750710668428500,6.595428466796875,-0.60186767578125,-0.8291015625,0.0196075439453125
1737750710678496500,6.60549658203125,-0.60479736328125,-0.855712890625,0.0191802978515625
1737750710688564500,6.615564453125,-0.614837646484375,-0.8796844482421875,0.0052337646484375
1737750710698632400,6.625632568359375,-0.6204071044921875,-0.8881072998046875,-0.01617431640625
1737750710708700400,6.635700439453125,-0.61810302734375,-0.87811279296875,-0.0426025390625
1737750710718768600,6.6457685546875,-0.61212158203125,-0.8657073974609375,-0.077972412109375
1737750710728836600,6.655836669921875,-0.6068115234375,-0.8527679443359375,-0.1171417236328125
1737750710738904600,6.665904541015625,-0.599517822265625,-0.83660888671875,-0.1525115966796875
1737750710748972300,6.67597216796875,-0.5926055908203125,-0.8171844482421875,-0.1811676025390625
1737750710759040500,6.68604052734375,-0.581878662109375,-0.79876708984375,-0.1985321044921875
1737750710769108500,6.6961083984375,-0.571807861328125,-0.7872467041015625,-0.2066497802734375
1737750710779176400,6.706176513671875,-0.56646728515625,-0.788726806640625,-0.21307373046875
1737750710789244400,6.716244384765625,-0.5631866455078125,-0.797637939453125,-0.215240478515625
1737750710799312600,6.726312744140625,-0.55621337890625,-0.8108673095703125,-0.2174530029296875
1737750710809380600,6.736380615234375,-0.544342041015625,-0.82208251953125,-0.2222442626953125
1737750710819448600,6.746448486328125,-0.5281524658203125,-0.8287200927734375,-0.2309417724609375
1737750710829516300,6.756516357421875,-0.514495849609375,-0.83111572265625,-0.24041748046875
1737750710839584500,6.76658447265625,-0.502960205078125,-0.8265838623046875,-0.246917724609375
1737750710849652500,6.776652587890625,-0.49395751953125,-0.8140106201171875,-0.248443603515625
1737750710859720400,6.786720458984375,-0.487640380859375,-0.7908172607421875,-0.24859619140625
1737750710869788400,6.796788330078125,-0.4843292236328125,-0.7606964111328125,-0.2464599609375
1737750710879857700,6.806857666015625,-0.4802398681640625,-0.7342529296875,-0.2437591552734375
1737750710889925400,6.81692529296875,-0.481903076171875,-0.721099853515625,-0.2401123046875
1737750710899993300,6.826993408203125,-0.4869537353515625,-0.722625732421875,-0.2352142333984375
1737750710910061600,6.8370615234375,-0.489288330078125,-0.7292633056640625,-0.226593017578125
1737750710920129500,6.847129638671875,-0.4945068359375,-0.727447509765625,-0.2144012451171875
1737750710930197500,6.857197509765625,-0.5064544677734375,-0.72247314453125,-0.198699951171875
1737750710940265500,6.867265380859375,-0.5153656005859375,-0.726104736328125,-0.1800994873046875
1737750710950333700,6.877333740234375,-0.523773193359375,-0.7339935302734375,-0.161956787109375
1737750710960401400,6.8874013671875,-0.52606201171875,-0.736083984375,-0.1467132568359375
1737750710970469400,6.897469482421875,-0.5302581787109375,-0.7329559326171875,-0.135589599609375
1737750710980537300,6.907537353515625,-0.5388031005859375,-0.7294769287109375,-0.1256561279296875
1737750710990605600,6.91760546875,-0.5458984375,-0.7248077392578125,-0.1187896728515625
1737750711000673500,6.927673583984375,-0.5462493896484375,-0.7150115966796875,-0.1122894287109375
1737750711010741500,6.937741455078125,-0.546234130859375,-0.707275390625,-0.109527587890625
1737750711020809500,6.9478095703125,-0.547149658203125,-0.701171875,-0.106903076171875
1737750711030877700,6.957877685546875,-0.5495758056640625,-0.696929931640625,-0.10504150390625
1737750711040945400,6.9679453125,-0.553985595703125,-0.7012939453125,-0.103302001953125
1737750711051013400,6.978013427734375,-0.55535888671875,-0.7274627685546875,-0.10552978515625
1737750711061081300,6.988081298828125,-0.5549468994140625,-0.76373291015625,-0.1121673583984375
1737750711071149600,6.998149658203125,-0.558441162109375,-0.7945709228515625,-0.1197052001953125
1737750711081217500,7.008217529296875,-0.5671234130859375,-0.815216064453125,-0.135528564453125
1737750711091285500,7.018285400390625,-0.5736846923828125,-0.82666015625,-0.1537322998046875
1737750711101353500,7.028353515625,-0.5764007568359375,-0.8305511474609375,-0.173736572265625
1737750711111421700,7.038421630859375,-0.5737457275390625,-0.82452392578125,-0.19952392578125
1737750711121489400,7.048489501953125,-0.5730438232421875,-0.810302734375,-0.231964111328125
1737750711131557400,7.058557373046875,-0.566619873046875,-0.799560546875,-0.2677459716796875
1737750711141625300,7.068625244140625,-0.5435791015625,-0.7924652099609375,-0.301849365234375
1737750711151693600,7.078693603515625,-0.519073486328125,-0.7900238037109375,-0.3386993408203125
1737750711161761500,7.088761474609375,-0.503021240234375,-0.7913665771484375,-0.3833465576171875
1737750711171829500,7.09882958984375,-0.4916839599609375,-0.7891082763671875,-0.4217529296875
1737750711181897500,7.1088974609375,-0.47930908203125,-0.7769622802734375,-0.4437103271484375
1737750711191965700,7.118965576171875,-0.4693756103515625,-0.756988525390625,-0.4527435302734375
1737750711202033400,7.129033447265625,-0.4604949951171875,-0.745574951171875,-0.453369140625
1737750711212101400,7.139101318359375,-0.4501953125,-0.7407379150390625,-0.4479522705078125
1737750711222169300,7.14916943359375,-0.4514312744140625,-0.737579345703125,-0.4356689453125
1737750711232237600,7.159237548828125,-0.4537506103515625,-0.723297119140625,-0.41204833984375
1737750711242305500,7.169305419921875,-0.461090087890625,-0.70025634765625,-0.37713623046875
1737750711252373500,7.17937353515625,-0.4756622314453125,-0.6814727783203125,-0.3381195068359375
1737750711262441700,7.189441650390625,-0.4877471923828125,-0.6743316650390625,-0.29833984375
1737750711272509700,7.199509765625,-0.4996337890625,-0.6859130859375,-0.2608489990234375
1737750711282577400,7.209577392578125,-0.5078277587890625,-0.71917724609375,-0.22314453125
1737750711292645400,7.219645263671875,-0.52337646484375,-0.756988525390625,-0.183990478515625
1737750711302713600,7.229713623046875,-0.53594970703125,-0.7917633056640625,-0.1425018310546875
1737750711312781600,7.239781494140625,-0.5431060791015625,-0.829833984375,-0.097198486328125
1737750711322849500,7.249849609375,-0.53936767578125,-0.874786376953125,-0.053466796875
1737750711332917500,7.25991748046875,-0.534088134765625,-0.918914794921875,-0.01513671875
1737750711342985700,7.26998583984375,-0.5260162353515625,-0.956512451171875,0.0183563232421875
1737750711353053700,7.2800537109375,-0.5206451416015625,-0.9834442138671875,0.0484161376953125
1737750711363121400,7.290121337890625,-0.5279541015625,-1.0045013427734375,0.0743255615234375
1737750711373189400,7.300189453125,-0.5367431640625,-1.02984619140625,0.0986785888671875
1737750711383257600,7.310257568359375,-0.544769287109375,-1.068359375,0.1218719482421875
1737750711393325600,7.32032568359375,-0.5622100830078125,-1.1162872314453125,0.141265869140625
1737750711403393500,7.3303935546875,-0.5802001953125,-1.168609619140625,0.1502532958984375
1737750711413461500,7.34046142578125,-0.58782958984375,-1.218170166015625,0.1588897705078125
1737750711423529700,7.35052978515625,-0.6020355224609375,-1.256927490234375,0.15899658203125
1737750711433597400,7.360597412109375,-0.6182403564453125,-1.2659454345703125,0.1477813720703125
1737750711443665400,7.37066552734375,-0.62615966796875,-1.24237060546875,0.1373138427734375
1737750711453734400,7.380734375,-0.626190185546875,-1.201019287109375,0.1245574951171875
1737750711463802600,7.390802734375,-0.6244049072265625,-1.150482177734375,0.1046142578125
1737750711473870600,7.40087060546875,-0.6203155517578125,-1.0979461669921875,0.0816497802734375
1737750711483938600,7.4109384765625,-0.60894775390625,-1.047576904296875,0.0644683837890625
1737750711494006500,7.421006591796875,-0.5908355712890625,-0.9984893798828125,0.0548553466796875
1737750711504074500,7.431074462890625,-0.5582427978515625,-0.9565277099609375,0.0471343994140625
1737750711514142500,7.441142578125,-0.51947021484375,-0.9368133544921875,0.0415191650390625
1737750711524210400,7.45121044921875,-0.4881134033203125,-0.9424285888671875,0.036407470703125
1737750711534278700,7.461278564453125,-0.4636993408203125,-0.95452880859375,0.0364837646484375
1737750711544346600,7.4713466796875,-0.443206787109375,-0.95404052734375,0.043182373046875
1737750711554414600,7.48141455078125,-0.424468994140625,-0.92803955078125,0.05462646484375
1737750711564482600,7.491482666015625,-0.4010009765625,-0.8940887451171875,0.0648193359375
1737750711574550500,7.501550537109375,-0.37542724609375,-0.874542236328125,0.0713653564453125
1737750711584618500,7.511618408203125,-0.3469696044921875,-0.872100830078125,0.0773162841796875
1737750711594686500,7.5216865234375,-0.326080322265625,-0.8693084716796875,0.084320068359375
1737750711604754400,7.53175439453125,-0.317108154296875,-0.8614501953125,0.0945892333984375
1737750711614822700,7.54182275390625,-0.3140106201171875,-0.847381591796875,0.1122589111328125
1737750711624890600,7.551890625,-0.3115234375,-0.828094482421875,0.128204345703125
1737750711634958600,7.56195849609375,-0.3070526123046875,-0.81378173828125,0.1362762451171875
1737750711645026600,7.572026611328125,-0.2954864501953125,-0.8156585693359375,0.1326446533203125
1737750711655094300,7.58209423828125,-0.2871856689453125,-0.826019287109375,0.12139892578125
1737750711665162200,7.592162353515625,-0.2787933349609375,-0.82501220703125,0.1076202392578125
1737750711675230200,7.602230224609375,-0.275604248046875,-0.8126373291015625,0.0989837646484375
1737750711685298200,7.612298095703125,-0.28643798828125,-0.800811767578125,0.0846099853515625
1737750711695366100,7.6223662109375,-0.2996826171875,-0.80615234375,0.066497802734375
1737750711705434400,7.632434326171875,-0.2988739013671875,-0.8198089599609375,0.0385589599609375
1737750711715502300,7.64250244140625,-0.28729248046875,-0.8331298828125,-0.00714111328125
1737750711725570300,7.6525703125,-0.2861785888671875,-0.8495635986328125,-0.066741943359375
1737750711735638000,7.662637939453125,-0.2907867431640625,-0.8793487548828125,-0.13018798828125
1737750711745706200,7.672706298828125,-0.293365478515625,-0.9246978759765625,-0.1914520263671875
1737750711755774200,7.682774169921875,-0.2884979248046875,-0.99066162109375,-0.25213623046875
1737750711765842200,7.69284228515625,-0.2810211181640625,-1.0660400390625,-0.3164825439453125
1737750711775910100,7.70291015625,-0.283355712890625,-1.1169281005859375,-0.3875732421875
1737750711785978400,7.712978271484375,-0.292388916015625,-1.131317138671875,-0.467681884765625
1737750711796046300,7.72304638671875,-0.3082427978515625,-1.10595703125,-0.5502166748046875
1737750711806114300,7.7331142578125,-0.3222503662109375,-1.038818359375,-0.62896728515625
1737750711816182000,7.74318212890625,-0.327423095703125,-0.93505859375,-0.6936798095703125
1737750711826250200,7.753250244140625,-0.3350830078125,-0.8158721923828125,-0.74688720703125
1737750711836318200,7.763318115234375,-0.34649658203125,-0.718841552734375,-0.7827911376953125
1737750711846386200,7.77338623046875,-0.355682373046875,-0.6709136962890625,-0.79620361328125
1737750711856454100,7.7834541015625,-0.3554840087890625,-0.6690673828125,-0.7863311767578125
1737750711866522400,7.7935224609375,-0.352447509765625,-0.6959686279296875,-0.765533447265625
1737750711876590300,7.80359033203125,-0.3596954345703125,-0.735870361328125,-0.742919921875
1737750711886658300,7.813658203125,-0.3765869140625,-0.7780303955078125,-0.71771240234375
1737750711896726000,7.82372607421875,-0.3961639404296875,-0.7962493896484375,-0.6847381591796875
1737750711906794200,7.833794189453125,-0.416259765625,-0.775238037109375,-0.6415557861328125
1737750711916862200,7.8438623046875,-0.4318695068359375,-0.7274322509765625,-0.592529296875
1737750711926930200,7.85393017578125,-0.4464569091796875,-0.6744384765625,-0.537628173828125
1737750711936998100,7.863998046875,-0.4521484375,-0.6403045654296875,-0.4813232421875
1737750711947066400,7.87406640625,-0.4376373291015625,-0.630126953125,-0.4363861083984375
1737750711957134300,7.88413427734375,-0.4226837158203125,-0.6410064697265625,-0.40264892578125
1737750711967202300,7.894202392578125,-0.3960113525390625,-0.6652679443359375,-0.37689208984375
1737750711977270000,7.90427001953125,-0.363189697265625,-0.68280029296875,-0.3504486083984375
1737750711987338200,7.914338134765625,-0.3366546630859375,-0.6911773681640625,-0.33258056640625
1737750711997406200,7.92440625,-0.31365966796875,-0.6958465576171875,-0.32366943359375
1737750712007474200,7.93447412109375,-0.2995758056640625,-0.710052490234375,-0.3160552978515625
1737750712017542100,7.944542236328125,-0.2799224853515625,-0.7394256591796875,-0.31976318359375
1737750712027610400,7.9546103515625,-0.267120361328125,-0.766754150390625,-0.3542938232421875
1737750712037679000,7.96467919921875,-0.2488250732421875,-0.7779388427734375,-0.4026947021484375
1737750712047747000,7.9747470703125,-0.2183990478515625,-0.767913818359375,-0.4491424560546875
1737750712057815300,7.984815185546875,-0.2039337158203125,-0.753509521484375,-0.486572265625
1737750712067883300,7.99488330078125,-0.2067718505859375,-0.7511749267578125,-0.52459716796875
1737750712077951200,8.004951171875,-0.2358856201171875,-0.757476806640625,-0.572479248046875
1737750712088019200,8.015019287109375,-0.26190185546875,-0.75823974609375,-0.6097869873046875
1737750712098087400,8.02508740234375,-0.276123046875,-0.748382568359375,-0.621795654296875
1737750712108155100,8.035155029296876,-0.300567626953125,-0.7314300537109375,-0.6214141845703125
1737750712118223000,8.04522314453125,-0.3467559814453125,-0.717071533203125,-0.604644775390625
1737750712128291000,8.055291015625,-0.3922576904296875,-0.70977783203125,-0.5670318603515625
1737750712138359300,8.065359375,-0.4161834716796875,-0.7091827392578125,-0.514404296875
1737750712148427300,8.07542724609375,-0.42901611328125,-0.720245361328125,-0.4588623046875
1737750712158495200,8.0854951171875,-0.4553070068359375,-0.768829345703125,-0.4165802001953125
1737750712168563200,8.095563232421876,-0.4811248779296875,-0.8535919189453125,-0.3891143798828125
1737750712178631400,8.10563134765625,-0.522735595703125,-0.9275054931640625,-0.3670196533203125
1737750712188699100,8.11569921875,-0.5623321533203125,-0.9798431396484375,-0.33740234375
1737750712198767000,8.12576708984375,-0.5889129638671875,-1.009918212890625,-0.3040313720703125
1737750712208835000,8.1358349609375,-0.603485107421875,-1.016357421875,-0.2830963134765625
1737750712218903300,8.1459033203125,-0.5923919677734375,-1.0019683837890625,-0.2685699462890625
1737750712228971300,8.15597119140625,-0.5693359375,-0.9700164794921875,-0.260040283203125
1737750712239039200,8.166039306640625,-0.537017822265625,-0.9239959716796875,-0.260284423828125
1737750712249107200,8.176107177734375,-0.48638916015625,-0.871185302734375,-0.2596435546875
1737750712259175400,8.186175537109374,-0.4400787353515625,-0.815460205078125,-0.2626953125
1737750712269243100,8.1962431640625,-0.4075164794921875,-0.7743072509765625,-0.2788543701171875
1737750712279311000,8.20631103515625,-0.3768768310546875,-0.7523040771484375,-0.2954254150390625
1737750712289379000,8.216379150390624,-0.362548828125,-0.7523193359375,-0.302032470703125
1737750712299447300,8.226447265625,-0.33477783203125,-0.764739990234375,-0.30230712890625
1737750712309515300,8.236515380859375,-0.3076019287109375,-0.7861785888671875,-0.3002777099609375
1737750712319583200,8.246583251953124,-0.294891357421875,-0.8358917236328125,-0.3022003173828125
1737750712329651200,8.256651123046876,-0.2351226806640625,-0.9315948486328125,-0.298492431640625
1737750712339719200,8.26671923828125,-0.2055206298828125,-1.0692596435546875,-0.2920989990234375
1737750712349787100,8.276787109375,-0.2068023681640625,-1.229949951171875,-0.29888916015625
1737750712359855000,8.286855224609376,-0.2097625732421875,-1.340240478515625,-0.2950286865234375
1737750712369923000,8.296923095703125,-0.222808837890625,-1.3468017578125,-0.2598724365234375
1737750712379991300,8.3069912109375,-0.249267578125,-1.2359161376953125,-0.191558837890625
1737750712390059300,8.317059326171876,-0.3126678466796875,-1.0842437744140625,-0.1017913818359375
1737750712400127200,8.327127197265625,-0.3233489990234375,-0.9857025146484375,-0.0471343994140625
1737750712410195200,8.3371953125,-0.3438568115234375,-1.036865234375,-0.05145263671875
1737750712420263200,8.34726318359375,-0.3847503662109375,-1.237457275390625,-0.1125640869140625
1737750712430331100,8.3573310546875,-0.3268280029296875,-1.4229736328125,-0.1884765625
1737750712440399000,8.367399169921875,-0.22412109375,-1.4724578857421875,-0.274810791015625
1737750712450467000,8.377467041015626,-0.13031005859375,-1.38525390625,-0.393890380859375
1737750712460535300,8.387535400390625,-0.02008056640625,-1.245574951171875,-0.5131683349609375
1737750712470603300,8.397603271484375,0.004425048828125,-1.1331634521484375,-0.582122802734375
1737750712480671200,8.407671142578126,-0.0437164306640625,-1.123565673828125,-0.592620849609375
1737750712490740200,8.417740234375,0.0234222412109375,-1.1295013427734375,-0.513031005859375
1737750712500808200,8.42780810546875,0.0432281494140625,-1.0514373779296875,-0.3983306884765625
1737750712510876200,8.437876220703124,0.016387939453125,-0.9033203125,-0.3936614990234375
1737750712520944000,8.447944091796876,-0.1031341552734375,-0.778839111328125,-0.471405029296875
1737750712531012400,8.458012451171875,-0.100494384765625,-0.6996307373046875,-0.521392822265625
1737750712541080300,8.468080322265624,-0.0882415771484375,-0.64642333984375,-0.508819580078125
1737750712551148300,8.478148193359376,-0.0615234375,-0.622772216796875,-0.4617462158203125
1737750712561216000,8.488216064453125,-0.0612640380859375,-0.632781982421875,-0.388946533203125
1737750712571284200,8.4982841796875,-0.0817413330078125,-0.6851806640625,-0.31866455078125
1737750712581352200,8.508352294921876,-0.0948486328125,-0.746612548828125,-0.2495269775390625
1737750712591420200,8.518420166015625,-0.0950469970703125,-0.7936859130859375,-0.1883697509765625
1737750712601488100,8.528488037109375,-0.108123779296875,-0.8313751220703125,-0.144317626953125
1737750712611556400,8.538556396484376,-0.115203857421875,-0.8795623779296875,-0.109954833984375
1737750712621624300,8.548624267578125,-0.128753662109375,-0.9287109375,-0.074493408203125
1737750712631692300,8.5586923828125,-0.1587677001953125,-0.9858551025390625,-0.034637451171875
1737750712641760000,8.568760009765626,-0.1907196044921875,-1.0659637451171875,-0.004486083984375
1737750712651829500,8.57882958984375,-0.2164459228515625,-1.1538848876953125,0.0125274658203125
1737750712661897500,8.5888974609375,-0.23065185546875,-1.2147979736328125,0.033172607421875
1737750712671965700,8.598965576171874,-0.2549896240234375,-1.2317657470703125,0.0582122802734375
1737750712682033700,8.60903369140625,-0.2655181884765625,-1.2042999267578125,0.076324462890625
1737750712692101400,8.619101318359375,-0.2854156494140625,-1.13885498046875,0.0855255126953125
1737750712702169300,8.62916943359375,-0.3170928955078125,-1.0586700439453125,0.0907440185546875
1737750712712237600,8.639237548828126,-0.3573455810546875,-0.9887237548828125,0.0911865234375
1737750712722305500,8.649305419921875,-0.385711669921875,-0.9323272705078125,0.081451416015625
1737750712732373500,8.65937353515625,-0.4008941650390625,-0.8744964599609375,0.063751220703125
1737750712742441500,8.66944140625,-0.38189697265625,-0.81402587890625,0.0353546142578125
1737750712752509700,8.679509765625,-0.3657379150390625,-0.770965576171875,-0.0122222900390625
1737750712762577400,8.689577392578125,-0.38726806640625,-0.784698486328125,-0.095947265625
1737750712772645400,8.699645263671876,-0.40087890625,-0.83184814453125,-0.1834869384765625
1737750712782713300,8.70971337890625,-0.4184722900390625,-0.83404541015625,-0.2392578125
1737750712792781600,8.719781494140625,-0.4521484375,-0.7573089599609375,-0.268524169921875
1737750712802849500,8.729849609375,-0.503326416015625,-0.6590728759765625,-0.2801361083984375
1737750712812917500,8.73991748046875,-0.5157012939453125,-0.631744384765625,-0.2851409912109375
1737750712822985500,8.7499853515625,-0.496337890625,-0.7393798828125,-0.309173583984375
1737750712833053700,8.7600537109375,-0.4256744384765625,-0.959747314453125,-0.3650360107421875
1737750712843121400,8.770121337890625,-0.353851318359375,-1.2178802490234375,-0.434539794921875
1737750712853189400,8.780189453125,-0.363525390625,-1.4409332275390625,-0.4727630615234375
1737750712863257300,8.79025732421875,-0.4362335205078125,-1.5451202392578125,-0.4487457275390625
1737750712873325600,8.80032568359375,-0.5131378173828125,-1.4874267578125,-0.374053955078125
1737750712883393500,8.8103935546875,-0.5556793212890625,-1.336029052734375,-0.3020477294921875
1737750712893461500,8.82046142578125,-0.5557403564453125,-1.170654296875,-0.27069091796875
1737750712903529500,8.830529541015625,-0.57177734375,-1.0245208740234375,-0.269622802734375
1737750712913597700,8.84059765625,-0.5821685791015625,-0.9150848388671875,-0.2880096435546875
1737750712923665400,8.85066552734375,-0.5648651123046875,-0.842742919921875,-0.316314697265625
1737750712933733400,8.8607333984375,-0.482696533203125,-0.787841796875,-0.3402862548828125
1737750712943802600,8.870802734375,-0.3902587890625,-0.7394866943359375,-0.3536376953125
1737750712953870600,8.88087060546875,-0.31732177734375,-0.6977996826171875,-0.35260009765625
1737750712963938600,8.8909384765625,-0.2588348388671875,-0.6683807373046875,-0.3400115966796875
1737750712974006500,8.901006591796875,-0.2197113037109375,-0.649932861328125,-0.327362060546875
1737750712984074500,8.911074462890625,-0.19390869140625,-0.6395263671875,-0.319183349609375
1737750712994142500,8.921142578125,-0.181121826171875,-0.63330078125,-0.316741943359375
1737750713004210400,8.93121044921875,-0.1800689697265625,-0.6157684326171875,-0.3271942138671875
1737750713014278400,8.9412783203125,-0.17547607421875,-0.58392333984375,-0.336883544921875
1737750713024346600,8.9513466796875,-0.1864776611328125,-0.5373687744140625,-0.3385162353515625
1737750713034414600,8.96141455078125,-0.21893310546875,-0.4902191162109375,-0.3326416015625
1737750713044482600,8.971482666015625,-0.2456207275390625,-0.4490814208984375,-0.323974609375
1737750713054550500,8.981550537109374,-0.2544403076171875,-0.4261016845703125,-0.328826904296875
1737750713064618500,8.991618408203125,-0.23553466796875,-0.4246063232421875,-0.3545379638671875
1737750713074686500,9.0016865234375,-0.224395751953125,-0.4362640380859375,-0.380523681640625
1737750713084754400,9.01175439453125,-0.2051239013671875,-0.4597320556640625,-0.390960693359375
1737750713094822400,9.021822509765625,-0.1518707275390625,-0.4817047119140625,-0.379730224609375
1737750713104890600,9.031890625,-0.107330322265625,-0.5016632080078125,-0.363189697265625
1737750713114958600,9.04195849609375,-0.079803466796875,-0.5363311767578125,-0.36614990234375
1737750713125026600,9.052026611328126,-0.08392333984375,-0.591583251953125,-0.378387451171875
1737750713135094500,9.062094482421875,-0.080352783203125,-0.67724609375,-0.3851470947265625
1737750713145162500,9.07216259765625,-0.059478759765625,-0.80169677734375,-0.379180908203125
1737750713155230500,9.08223046875,-0.050933837890625,-0.9461517333984375,-0.370513916015625
1737750713165298400,9.09229833984375,-0.07177734375,-1.0911407470703125,-0.3670654296875
1737750713175366400,9.102366455078124,-0.107269287109375,-1.25079345703125,-0.36614990234375
1737750713185434600,9.1124345703125,-0.1017303466796875,-1.4308929443359375,-0.36083984375
1737750713195502600,9.122502685546875,-0.0685272216796875,-1.6060638427734375,-0.3412628173828125
1737750713205570600,9.132570556640625,-0.0824737548828125,-1.7470703125,-0.303436279296875
1737750713215638300,9.14263818359375,-0.0983428955078125,-1.8228302001953125,-0.232177734375
1737750713225706500,9.15270654296875,-0.08026123046875,-1.8334503173828125,-0.172332763671875
1737750713235774500,9.1627744140625,-0.1165313720703125,-1.7921905517578125,-0.1728668212890625
1737750713245842400,9.172842529296876,-0.1438751220703125,-1.71343994140625,-0.206787109375
1737750713255910700,9.18291064453125,-0.16375732421875,-1.612030029296875,-0.211883544921875
1737750713265978600,9.192978515625,-0.19256591796875,-1.53741455078125,-0.2115325927734375
1737750713276046600,9.203046630859374,-0.2276458740234375,-1.4817047119140625,-0.2195281982421875
1737750713286114600,9.213114501953125,-0.27471923828125,-1.39068603515625,-0.2488861083984375
1737750713296182500,9.2231826171875,-0.3068389892578125,-1.2408447265625,-0.3077545166015625
1737750713306250500,9.23325048828125,-0.3246612548828125,-1.068084716796875,-0.3822021484375
1737750713316318500,9.243318359375,-0.302276611328125,-0.9108428955078125,-0.4470672607421875
1737750713326386400,9.253386474609375,-0.2516326904296875,-0.7766876220703125,-0.4921417236328125
1737750713336454700,9.26345458984375,-0.203338623046875,-0.6603546142578125,-0.516082763671875
1737750713346522600,9.273522705078125,-0.189208984375,-0.5672149658203125,-0.512664794921875
1737750713356590600,9.283590576171875,-0.1980743408203125,-0.517669677734375,-0.4637603759765625
1737750713366658600,9.293658447265624,-0.203643798828125,-0.5152130126953125,-0.35418701171875
1737750713376726500,9.3037265625,-0.193939208984375,-0.5437164306640625,-0.21221923828125
1737750713386794500,9.31379443359375,-0.1964569091796875,-0.591827392578125,-0.0638885498046875
1737750713396862500,9.323862548828124,-0.1976470947265625,-0.630096435546875,0.082366943359375
1737750713406930400,9.333930419921876,-0.195892333984375,-0.64208984375,0.222991943359375
1737750713416998700,9.34399853515625,-0.203887939453125,-0.6460723876953125,0.3448638916015625
1737750713427066600,9.354066650390624,-0.2277679443359375,-0.654296875,0.4454193115234375
1737750713437134600,9.364134521484376,-0.2687835693359375,-0.689483642578125,0.5205230712890625
1737750713447202600,9.37420263671875,-0.3151397705078125,-0.742218017578125,0.5742340087890625
1737750713457270500,9.3842705078125,-0.3582305908203125,-0.7776336669921875,0.5796966552734375
1737750713467338500,9.39433837890625,-0.3863372802734375,-0.7859039306640625,0.5404815673828125
1737750713477406500,9.404406494140625,-0.4083099365234375,-0.7638397216796875,0.460479736328125
1737750713487475700,9.414475830078125,-0.433563232421875,-0.725616455078125,0.352447509765625
1737750713497543700,9.424543701171874,-0.47491455078125,-0.720245361328125,0.225799560546875
1737750713507611400,9.434611328125,-0.5206146240234375,-0.7734222412109375,0.0854644775390625
1737750713517679400,9.444679443359375,-0.5484161376953125,-0.87939453125,-0.069305419921875
1737750713527747600,9.45474755859375,-0.5260162353515625,-1.0013275146484375,-0.2381744384765625
1737750713537815600,9.464815673828125,-0.4938507080078125,-1.05548095703125,-0.4251251220703125
1737750713547883500,9.474883544921875,-0.4805755615234375,-0.989471435546875,-0.6126708984375
1737750713557951500,9.484951416015624,-0.454986572265625,-0.857177734375,-0.751495361328125
1737750713568019700,9.495019775390626,-0.42181396484375,-0.7415924072265625,-0.8223419189453125
1737750713578087700,9.505087646484375,-0.410400390625,-0.717010498046875,-0.8484954833984375
1737750713588155400,9.5151552734375,-0.4076995849609375,-0.8187713623046875,-0.8241119384765625
1737750713598223400,9.525223388671876,-0.3979644775390625,-1.0010528564453125,-0.7511138916015625
1737750713608291600,9.53529150390625,-0.40325927734375,-1.1620635986328125,-0.658843994140625
1737750713618359600,9.545359619140624,-0.4313812255859375,-1.2488250732421875,-0.5541839599609375
1737750713628427500,9.555427490234376,-0.4609832763671875,-1.2525177001953125,-0.4370269775390625
1737750713638495500,9.56549560546875,-0.477569580078125,-1.1942901611328125,-0.336639404296875
1737750713648563700,9.575563720703125,-0.4935150146484375,-1.1080322265625,-0.2681427001953125
1737750713658630700,9.585630615234376,-0.5025787353515625,-1.02252197265625,-0.226531982421875
1737750713668698600,9.59569873046875,-0.4949493408203125,-0.9496612548828125,-0.2024383544921875
1737750713678766600,9.6057666015625,-0.47723388671875,-0.8867645263671875,-0.199920654296875
1737750713688834600,9.61583447265625,-0.4520721435546875,-0.8292236328125,-0.22625732421875
1737750713698902500,9.625902587890625,-0.415985107421875,-0.7772216796875,-0.275482177734375
1737750713708970500,9.635970458984374,-0.3685455322265625,-0.724212646484375,-0.330474853515625
1737750713719038500,9.64603857421875,-0.3205718994140625,-0.675689697265625,-0.3768157958984375
1737750713729106700,9.656106689453125,-0.2857513427734375,-0.6451416015625,-0.4134979248046875
1737750713739174700,9.666174560546875,-0.2628631591796875,-0.6391448974609375,-0.4365997314453125
1737750713749242600,9.67624267578125,-0.2455596923828125,-0.65252685546875,-0.440643310546875
1737750713759310600,9.686310546875,-0.2380828857421875,-0.67279052734375,-0.433258056640625
1737750713769378600,9.696378662109375,-0.240875244140625,-0.6944732666015625,-0.4188690185546875
1737750713779446500,9.706446533203126,-0.2467193603515625,-0.7125396728515625,-0.389068603515625
1737750713789514500,9.716514404296875,-0.2480316162109375,-0.7204132080078125,-0.344085693359375
1737750713799582500,9.72658251953125,-0.2544708251953125,-0.72137451171875,-0.2920684814453125
1737750713809650700,9.736650634765626,-0.2706756591796875,-0.7234039306640625,-0.2410736083984375
1737750713819718700,9.74671875,-0.2903289794921875,-0.729248046875,-0.1911163330078125
1737750713829786600,9.75678662109375,-0.3162078857421875,-0.7375946044921875,-0.1431732177734375
1737750713839854600,9.7668544921875,-0.3426513671875,-0.7582855224609375,-0.102508544921875
1737750713849922600,9.776922607421875,-0.3671112060546875,-0.8017120361328125,-0.0701904296875
1737750713859990500,9.786990478515625,-0.388702392578125,-0.8700714111328125,-0.0514373779296875
1737750713870058500,9.79705859375,-0.410064697265625,-0.954681396484375,-0.04608154296875
1737750713880126700,9.807126708984375,-0.436004638671875,-1.0343475341796875,-0.0531768798828125
1737750713890194700,9.817194580078125,-0.44927978515625,-1.0856170654296875,-0.05908203125
1737750713900262700,9.8272626953125,-0.448333740234375,-1.0772857666015625,-0.065216064453125
1737750713910330600,9.83733056640625,-0.467926025390625,-1.015380859375,-0.0792388916015625
1737750713920398600,9.847398681640625,-0.5242767333984375,-0.9989776611328125,-0.0912322998046875
1737750713930466600,9.857466552734374,-0.5412139892578125,-1.074920654296875,-0.0779266357421875
1737750713940534500,9.867534423828126,-0.533660888671875,-1.20263671875,-0.052734375
1737750713950602500,9.8776025390625,-0.5471954345703125,-1.3406982421875,-0.0376129150390625
1737750713960670700,9.887670654296874,-0.5320587158203125,-1.4254302978515625,-0.004913330078125
1737750713970738700,9.89773876953125,-0.4924468994140625,-1.44671630859375,0.05987548828125
1737750713980806700,9.907806640625,-0.4754486083984375,-1.431671142578125,0.1243133544921875
1737750713990874600,9.91787451171875,-0.4820556640625,-1.4121856689453125,0.185150146484375
1737750714000942600,9.927942626953126,-0.50244140625,-1.3933563232421875,0.2423553466796875
1737750714011010600,9.938010498046875,-0.5005340576171875,-1.3611602783203125,0.288299560546875
1737750714021078500,9.94807861328125,-0.4910888671875,-1.3036651611328125,0.2956390380859375
1737750714031146500,9.958146484375,-0.4723052978515625,-1.2183990478515625,0.2502899169921875
1737750714041214700,9.968214599609375,-0.4530487060546875,-1.1000213623046875,0.180877685546875
1737750714051282700,9.97828271484375,-0.4278564453125,-0.947357177734375,0.1413726806640625
1737750714061350700,9.9883505859375,-0.40625,-0.791534423828125,0.1393890380859375
1737750714071418600,9.998418701171875,-0.3992156982421875,-0.6622772216796875,0.1417694091796875
1737750714081486600,10.008486572265625,-0.411285400390625,-0.5819091796875,0.1404266357421875
1737750714091554600,10.018554443359376,-0.416107177734375,-0.5526580810546875,0.14239501953125
1737750714101623600,10.02862353515625,-0.411468505859375,-0.549163818359375,0.15380859375
1737750714111691800,10.03869189453125,-0.3924102783203125,-0.5479888916015625,0.16485595703125
1737750714121759700,10.048759765625,-0.3719635009765625,-0.5318450927734375,0.16455078125
1737750714131827700,10.05882763671875,-0.3491668701171875,-0.4940338134765625,0.14556884765625
1737750714141895400,10.0688955078125,-0.3317718505859375,-0.424468994140625,0.1123046875
1737750714151963600,10.078963623046874,-0.313201904296875,-0.326080322265625,0.0770416259765625
1737750714162031600,10.089031494140626,-0.304412841796875,-0.2313690185546875,0.0341644287109375
1737750714172099600,10.099099609375,-0.31878662109375,-0.162139892578125,-0.0120391845703125
1737750714182167600,10.10916748046875,-0.351318359375,-0.131927490234375,-0.048004150390625
1737750714192235800,10.11923583984375,-0.3901824951171875,-0.146331787109375,-0.0662384033203125
1737750714202303700,10.1293037109375,-0.4272308349609375,-0.2151031494140625,-0.0648345947265625
1737750714212371700,10.139371826171875,-0.4827117919921875,-0.3599395751953125,-0.0674896240234375
1737750714222439400,10.149439453125,-0.511627197265625,-0.5843048095703125,-0.088043212890625
1737750714232507600,10.159507568359375,-0.5221099853515625,-0.839691162109375,-0.1181182861328125
1737750714242575600,10.16957568359375,-0.5534210205078125,-1.03369140625,-0.1529541015625
1737750714252643600,10.1796435546875,-0.599609375,-1.0934295654296875,-0.1735382080078125
1737750714262711600,10.189711669921875,-0.6551666259765625,-1.0287933349609375,-0.1865692138671875
1737750714272779800,10.19977978515625,-0.6983642578125,-0.9390869140625,-0.2062530517578125
1737750714282847700,10.20984765625,-0.70855712890625,-0.886505126953125,-0.2335357666015625
1737750714292915500,10.21991552734375,-0.71343994140625,-0.8473663330078125,-0.2546539306640625
1737750714302983400,10.2299833984375,-0.73358154296875,-0.800048828125,-0.2423858642578125
1737750714313051600,10.2400517578125,-0.7710723876953125,-0.7547149658203125,-0.1765594482421875
1737750714323119600,10.25011962890625,-0.7962646484375,-0.7082366943359375,-0.0757904052734375
1737750714333187600,10.2601875,-0.83929443359375,-0.6544342041015625,0.0000762939453125
1737750714343255600,10.270255615234374,-0.89202880859375,-0.6180877685546875,0.0272979736328125
1737750714353323800,10.28032373046875,-0.90057373046875,-0.6156768798828125,0.0277862548828125
1737750714363391700,10.290391845703125,-0.86627197265625,-0.6373443603515625,0.0027008056640625
1737750714373459500,10.30045947265625,-0.82952880859375,-0.65899658203125,-0.039154052734375
1737750714383527400,10.31052734375,-0.79400634765625,-0.656402587890625,-0.0747833251953125
1737750714393595600,10.320595703125,-0.7452392578125,-0.630950927734375,-0.092132568359375
1737750714403663600,10.33066357421875,-0.7186431884765625,-0.58453369140625,-0.1038055419921875
1737750714413731600,10.340731689453126,-0.7048187255859375,-0.530303955078125,-0.1143798828125
1737750714423799600,10.350799560546875,-0.685882568359375,-0.4940338134765625,-0.1243743896484375
1737750714433867800,10.36086767578125,-0.663726806640625,-0.4831085205078125,-0.1328887939453125
1737750714443935700,10.370935791015626,-0.6473236083984375,-0.4803619384765625,-0.13751220703125
1737750714454003500,10.38100341796875,-0.6463623046875,-0.4753265380859375,-0.1300201416015625
1737750714464071400,10.391071533203124,-0.6598968505859375,-0.46807861328125,-0.11700439453125
1737750714474139600,10.4011396484375,-0.6788482666015625,-0.4608306884765625,-0.104339599609375
1737750714484207600,10.41120751953125,-0.6997528076171875,-0.4545440673828125,-0.1085052490234375
1737750714494275600,10.421275634765625,-0.7117156982421875,-0.4422149658203125,-0.1394500732421875
1737750714504343600,10.431343505859376,-0.7100677490234375,-0.4340057373046875,-0.1866302490234375
1737750714514411800,10.441411865234375,-0.7057647705078125,-0.4297637939453125,-0.2347259521484375
1737750714524479700,10.451479736328125,-0.700469970703125,-0.42718505859375,-0.2667388916015625
1737750714534547500,10.46154736328125,-0.70440673828125,-0.419158935546875,-0.2755584716796875
1737750714544615400,10.471615478515625,-0.71417236328125,-0.4096832275390625,-0.2660675048828125
1737750714554683600,10.48168359375,-0.7292022705078125,-0.4089202880859375,-0.24102783203125
1737750714564751600,10.491751708984374,-0.7430419921875,-0.421173095703125,-0.210662841796875
1737750714574819600,10.501819580078125,-0.75201416015625,-0.445587158203125,-0.178497314453125
1737750714584887600,10.511887451171875,-0.754302978515625,-0.47503662109375,-0.1409454345703125
1737750714594956500,10.52195654296875,-0.7548370361328125,-0.4864044189453125,-0.100341796875
1737750714605024500,10.5320244140625,-0.7579345703125,-0.48065185546875,-0.05206298828125
1737750714615092500,10.542092529296875,-0.75738525390625,-0.471649169921875,0.00885009765625
1737750714625160700,10.55216064453125,-0.7530364990234375,-0.469390869140625,0.0812835693359375
1737750714635228700,10.562228759765626,-0.7535400390625,-0.4681243896484375,0.151824951171875
1737750714645296600,10.572296630859375,-0.7728424072265625,-0.4741363525390625,0.209228515625
1737750714655364600,10.582364501953125,-0.8147125244140625,-0.4911041259765625,0.2479400634765625
1737750714665432600,10.5924326171875,-0.8607635498046875,-0.5159149169921875,0.266510009765625
1737750714675500500,10.60250048828125,-0.880523681640625,-0.5352630615234375,0.2741241455078125
1737750714685568500,10.612568603515625,-0.8846282958984375,-0.5371246337890625,0.2941436767578125
1737750714695636500,10.622636474609376,-0.8827667236328125,-0.5291290283203125,0.3289947509765625
1737750714705704700,10.63270458984375,-0.8935394287109375,-0.52374267578125,0.3638916015625
1737750714715772700,10.642772705078125,-0.9246063232421875,-0.518402099609375,0.3917694091796875
1737750714725840600,10.652840576171876,-0.9553375244140625,-0.507354736328125,0.411712646484375
1737750714735908600,10.66290869140625,-0.967926025390625,-0.5059356689453125,0.418365478515625
1737750714745976600,10.6729765625,-0.97412109375,-0.526275634765625,0.395965576171875
1737750714756044500,10.68304443359375,-0.9710540771484375,-0.5604400634765625,0.3441009521484375
1737750714766112500,10.693112548828125,-0.96832275390625,-0.58837890625,0.28155517578125
1737750714776180500,10.703180419921875,-0.967010498046875,-0.59808349609375,0.2195587158203125
1737750714786248700,10.713248779296874,-0.962982177734375,-0.602874755859375,0.164581298828125
1737750714796316700,10.723316650390625,-0.9589080810546875,-0.610321044921875,0.1287384033203125
1737750714806384600,10.733384521484375,-0.9539947509765625,-0.6189117431640625,0.1162872314453125
1737750714816452600,10.74345263671875,-0.940277099609375,-0.6055755615234375,0.1268157958984375
1737750714826520600,10.7535205078125,-0.930877685546875,-0.57086181640625,0.1458892822265625
1737750714836588500,10.763588623046875,-0.9183197021484375,-0.5529937744140625,0.1596221923828125
1737750714846656500,10.773656494140624,-0.8993072509765625,-0.56268310546875,0.168975830078125
1737750714856724500,10.783724365234375,-0.8803863525390625,-0.587066650390625,0.1650543212890625
1737750714866792700,10.793792724609375,-0.8690338134765625,-0.60357666015625,0.152252197265625
1737750714876860700,10.803860595703124,-0.8632659912109375,-0.6146392822265625,0.141815185546875
1737750714886928600,10.8139287109375,-0.8522796630859375,-0.62005615234375,0.1476898193359375
1737750714896996600,10.82399658203125,-0.828399658203125,-0.6080169677734375,0.1753997802734375
1737750714907064600,10.834064697265624,-0.809478759765625,-0.5865936279296875,0.2095947265625
1737750714917132500,10.844132568359376,-0.794830322265625,-0.569305419921875,0.2367095947265625
1737750714927200500,10.854200439453125,-0.778289794921875,-0.56158447265625,0.258697509765625
1737750714937268500,10.8642685546875,-0.7566070556640625,-0.5535888671875,0.2860870361328125
1737750714947336700,10.874336669921876,-0.7392120361328125,-0.5314788818359375,0.3173675537109375
1737750714957405400,10.884405517578125,-0.7381591796875,-0.4924468994140625,0.3550262451171875
1737750714967473400,10.894473388671875,-0.738983154296875,-0.4578704833984375,0.3979644775390625
1737750714977541600,10.904541748046874,-0.7332916259765625,-0.4705810546875,0.4579925537109375
1737750714987609600,10.914609619140625,-0.7196197509765625,-0.5099945068359375,0.5380706787109375
1737750714997677600,10.924677490234375,-0.700408935546875,-0.5621490478515625,0.6060791015625
1737750715007745500,10.93474560546875,-0.7017364501953125,-0.629913330078125,0.6472320556640625
1737750715017813800,10.944813720703126,-0.7065582275390625,-0.702880859375,0.6539764404296875
1737750715027881700,10.9548818359375,-0.7165985107421875,-0.7381744384765625,0.6428680419921875
1737750715037949400,10.964949462890624,-0.725128173828125,-0.713134765625,0.6198272705078125
1737750715048017400,10.975017333984376,-0.7259521484375,-0.6506195068359375,0.590606689453125
1737750715058085600,10.985085693359375,-0.7046966552734375,-0.5944366455078125,0.5670166015625
1737750715068153600,10.995153564453124,-0.6853790283203125,-0.5708770751953125,0.55718994140625
1737750715078221600,11.0052216796875,-0.6928863525390625,-0.5898284912109375,0.5554351806640625
1737750715088289500,11.01528955078125,-0.7118377685546875,-0.62506103515625,0.5456085205078125
1737750715098357800,11.025357666015625,-0.7313079833984375,-0.64599609375,0.5206298828125
1737750715108425700,11.03542578125,-0.7679595947265625,-0.650054931640625,0.4770050048828125
1737750715118493400,11.045493408203125,-0.801605224609375,-0.6441192626953125,0.4219512939453125
1737750715128561400,11.0555615234375,-0.84356689453125,-0.6197662353515625,0.3787078857421875
1737750715138629600,11.065629638671876,-0.890716552734375,-0.5746917724609375,0.3533782958984375
1737750715148697600,11.075697509765625,-0.9214935302734375,-0.5311279296875,0.3532257080078125
1737750715158765600,11.085765625,-0.92742919921875,-0.4907379150390625,0.3666229248046875
1737750715168833500,11.09583349609375,-0.9342498779296875,-0.44854736328125,0.3751373291015625
1737750715178901800,11.10590185546875,-0.9243011474609375,-0.4083251953125,0.3812255859375
1737750715188969700,11.1159697265625,-0.90008544921875,-0.365234375,0.3912200927734375
1737750715199037400,11.126037353515626,-0.8765106201171875,-0.3208160400390625,0.403656005859375
1737750715209105400,11.13610546875,-0.8563079833984375,-0.2923736572265625,0.4199371337890625
1737750715219173600,11.146173583984375,-0.8339385986328125,-0.2805023193359375,0.4361724853515625
1737750715229241600,11.15624169921875,-0.81597900390625,-0.2812347412109375,0.4445953369140625
1737750715239309600,11.1663095703125,-0.79840087890625,-0.28875732421875,0.448089599609375
1737750715249377500,11.17637744140625,-0.78460693359375,-0.2881011962890625,0.4557342529296875
1737750715259445800,11.18644580078125,-0.7764129638671875,-0.2812957763671875,0.4572601318359375
1737750715269513700,11.196513671875,-0.786163330078125,-0.2659912109375,0.4553680419921875
1737750715279581400,11.20658154296875,-0.8022613525390625,-0.253662109375,0.4725341796875
1737750715289649400,11.2166494140625,-0.8115386962890625,-0.2532958984375,0.5045318603515625
1737750715299717600,11.226717529296875,-0.8371124267578125,-0.2675933837890625,0.519317626953125
1737750715309785600,11.23678564453125,-0.867706298828125,-0.290557861328125,0.513519287109375
1737750715319854600,11.2468544921875,-0.8844451904296875,-0.2945098876953125,0.511016845703125
1737750715329922600,11.256922607421876,-0.8783416748046875,-0.2982177734375,0.49591064453125
1737750715339990500,11.266990478515625,-0.8809356689453125,-0.317901611328125,0.448211669921875
1737750715350058500,11.27705859375,-0.9032135009765625,-0.336822509765625,0.38372802734375
1737750715360126500,11.28712646484375,-0.926239013671875,-0.3321533203125,0.328338623046875
1737750715370194700,11.297194580078125,-0.9304046630859375,-0.3305511474609375,0.2965545654296875
1737750715380262700,11.3072626953125,-0.953704833984375,-0.3563232421875,0.2762451171875
1737750715390330600,11.31733056640625,-0.98065185546875,-0.4014434814453125,0.26300048828125
1737750715400398600,11.327398681640625,-1.0135498046875,-0.431610107421875,0.2567901611328125
1737750715410466600,11.337466552734375,-1.053375244140625,-0.4443206787109375,0.2403717041015625
1737750715420534500,11.347534423828124,-1.0904083251953125,-0.4561614990234375,0.2143096923828125
1737750715430602500,11.3576025390625,-1.1103363037109375,-0.457672119140625,0.2017974853515625
1737750715440670500,11.36767041015625,-1.10467529296875,-0.4405364990234375,0.200592041015625
1737750715450738700,11.37773876953125,-1.105224609375,-0.41180419921875,0.1839599609375
1737750715460806700,11.387806640625,-1.0713958740234375,-0.379058837890625,0.1517181396484375
1737750715470874600,11.39787451171875,-0.99041748046875,-0.3217620849609375,0.1396026611328125
1737750715480942600,11.407942626953124,-0.9093475341796875,-0.274078369140625,0.15069580078125
1737750715491010600,11.418010498046876,-0.8533477783203125,-0.286712646484375,0.1549835205078125
1737750715501078500,11.42807861328125,-0.83917236328125,-0.321319580078125,0.142669677734375
1737750715511146500,11.438146484375,-0.856842041015625,-0.331268310546875,0.1118011474609375
1737750715521214500,11.44821435546875,-0.8860931396484375,-0.3173828125,0.066558837890625
1737750715531282700,11.45828271484375,-0.910614013671875,-0.3046722412109375,0.0250701904296875
1737750715541350700,11.4683505859375,-0.93658447265625,-0.3034210205078125,-0.0108642578125
1737750715551418600,11.478418701171876,-0.955169677734375,-0.3165740966796875,-0.04254150390625
1737750715561486600,11.488486572265625,-0.9573822021484375,-0.332061767578125,-0.0699310302734375
1737750715571554600,11.498554443359374,-0.965087890625,-0.336273193359375,-0.0909423828125
1737750715581622500,11.50862255859375,-0.9752197265625,-0.3372039794921875,-0.09661865234375
1737750715591690500,11.5186904296875,-0.9759521484375,-0.336395263671875,-0.0915069580078125
1737750715601758700,11.5287587890625,-0.9784393310546875,-0.3246002197265625,-0.093902587890625
1737750715611826700,11.53882666015625,-0.981170654296875,-0.2974700927734375,-0.107818603515625
1737750715621894700,11.548894775390625,-0.9554901123046875,-0.2558441162109375,-0.105255126953125
1737750715631962600,11.558962646484375,-0.9167633056640625,-0.211761474609375,-0.0905303955078125
1737750715642031600,11.569031494140624,-0.88531494140625,-0.1728973388671875,-0.0849761962890625
1737750715652099600,11.579099609375,-0.859375,-0.1424102783203125,-0.07366943359375
1737750715662167800,11.589167724609375,-0.834869384765625,-0.136322021484375,-0.062164306640625
1737750715672235800,11.59923583984375,-0.82421875,-0.1482391357421875,-0.0761566162109375
1737750715682303700,11.6093037109375,-0.80670166015625,-0.179168701171875,-0.10675048828125
1737750715692371700,11.619371826171875,-0.7896881103515625,-0.2174224853515625,-0.1354827880859375
1737750715702439700,11.629439697265624,-0.792236328125,-0.2558746337890625,-0.1653900146484375
1737750715712507600,11.639507568359376,-0.8192138671875,-0.28558349609375,-0.186553955078125
1737750715722575600,11.64957568359375,-0.83453369140625,-0.314910888671875,-0.18292236328125
1737750715732643800,11.659643798828125,-0.8339080810546875,-0.3486480712890625,-0.1697998046875
1737750715742711800,11.6697119140625,-0.8405914306640625,-0.3688812255859375,-0.1739654541015625
1737750715752779800,11.67977978515625,-0.855560302734375,-0.3870849609375,-0.196990966796875
1737750715762847700,11.68984765625,-0.867095947265625,-0.4166717529296875,-0.2180328369140625
1737750715772916000,11.699916015625,-0.87127685546875,-0.44110107421875,-0.22979736328125
1737750715782983700,11.709983642578125,-0.8632354736328125,-0.445068359375,-0.2557220458984375
1737750715793051600,11.7200517578125,-0.84747314453125,-0.4359893798828125,-0.309478759765625
1737750715803119600,11.73011962890625,-0.8275909423828125,-0.419036865234375,-0.3720703125
1737750715813187800,11.740187744140625,-0.810943603515625,-0.4064178466796875,-0.4047088623046875
1737750715823255800,11.750255859375,-0.7906951904296875,-0.41607666015625,-0.392059326171875
1737750715833323800,11.76032373046875,-0.76043701171875,-0.4434356689453125,-0.3633880615234375
1737750715843391700,11.770391845703125,-0.738037109375,-0.4604949951171875,-0.363555908203125
1737750715853459700,11.780459716796875,-0.7217559814453125,-0.46746826171875,-0.4141387939453125
1737750715863527700,11.790527587890624,-0.697265625,-0.499847412109375,-0.4782257080078125
1737750715873595600,11.800595703125,-0.6493988037109375,-0.5411834716796875,-0.528839111328125
1737750715883663600,11.81066357421875,-0.5991058349609375,-0.566131591796875,-0.582855224609375
1737750715893731800,11.82073193359375,-0.5720977783203125,-0.5959014892578125,-0.64654541015625
1737750715903799800,11.8307998046875,-0.5337066650390625,-0.6513214111328125,-0.6957244873046875
1737750715913868500,11.84086865234375,-0.489501953125,-0.695343017578125,-0.725372314453125
1737750715923936800,11.850936767578125,-0.4612884521484375,-0.7061767578125,-0.7412567138671875
1737750715934004700,11.861004638671876,-0.4191741943359375,-0.6996612548828125,-0.7357635498046875
1737750715944072700,11.87107275390625,-0.369598388671875,-0.68963623046875,-0.7241973876953125
1737750715954140700,11.881140625,-0.3245849609375,-0.7101898193359375,-0.7239837646484375
1737750715964209000,11.891208984375,-0.2809600830078125,-0.7431640625,-0.718658447265625
1737750715974276900,11.90127685546875,-0.2405853271484375,-0.76202392578125,-0.7124481201171875
1737750715984344800,11.9113447265625,-0.212188720703125,-0.7911376953125,-0.7195892333984375
1737750715994412500,11.92141259765625,-0.1842803955078125,-0.833892822265625,-0.7388763427734375
1737750716004480800,11.931480712890625,-0.170501708984375,-0.884490966796875,-0.7772369384765625
1737750716014548700,11.941548828125,-0.1574554443359375,-0.9329833984375,-0.8192138671875
1737750716024616700,11.95161669921875,-0.1554412841796875,-0.9535064697265625,-0.840850830078125
1737750716034684700,11.9616845703125,-0.1813201904296875,-0.9384613037109375,-0.8480377197265625
1737750716044753000,11.9717529296875,-0.2257232666015625,-0.947052001953125,-0.873016357421875
1737750716054820900,11.98182080078125,-0.2672882080078125,-1.0316619873046875,-0.9204864501953125
1737750716064888800,11.991888916015625,-0.3095855712890625,-1.09075927734375,-0.9776763916015625
1737750716074956500,12.00195654296875,-0.379425048828125,-1.022369384765625,-1.077056884765625
1737750716085024800,12.012024658203124,-0.5029449462890625,-0.9005889892578125,-1.2106170654296875
1737750716095092700,12.0220927734375,-0.6202545166015625,-0.843536376953125,-1.3253936767578125
1737750716105160700,12.03216064453125,-0.6889495849609375,-0.859130859375,-1.3322296142578125
1737750716115228700,12.042228759765624,-0.6864166259765625,-0.8928070068359375,-1.174713134765625
1737750716125297000,12.052296875,-0.6634674072265625,-0.8948211669921875,-0.911041259765625
1737750716135364900,12.06236474609375,-0.69696044921875,-0.86737060546875,-0.6468658447265625
1737750716145432800,12.072432861328124,-0.768157958984375,-0.834014892578125,-0.449493408203125
1737750716155500500,12.08250048828125,-0.8180999755859375,-0.816925048828125,-0.3028564453125
1737750716165569800,12.09256982421875,-0.8026275634765625,-0.783233642578125,-0.172088623046875
1737750716175637800,12.1026376953125,-0.7449951171875,-0.6940460205078125,-0.0661773681640625
1737750716185705700,12.112705810546874,-0.7135467529296875,-0.5765533447265625,0.00457763671875
1737750716195774000,12.12277392578125,-0.7096405029296875,-0.4612884521484375,0.0699920654296875
1737750716205841700,12.132841552734375,-0.7086944580078125,-0.3606109619140625,0.1580047607421875
1737750716215909600,12.14290966796875,-0.710540771484375,-0.289642333984375,0.2430267333984375
1737750716225977600,12.1529775390625,-0.7303924560546875,-0.2737884521484375,0.30889892578125
1737750716236045800,12.1630458984375,-0.7408905029296875,-0.2852935791015625,0.3477630615234375
1737750716246113800,12.17311376953125,-0.7791290283203125,-0.3073577880859375,0.350341796875
1737750716256181800,12.183181640625,-0.81781005859375,-0.350677490234375,0.310577392578125
1737750716266249700,12.193249755859375,-0.8473052978515625,-0.4209442138671875,0.2451019287109375
1737750716276318000,12.20331787109375,-0.87042236328125,-0.49725341796875,0.1580657958984375
1737750716286385700,12.2133857421875,-0.90960693359375,-0.5598602294921875,0.0453948974609375
1737750716296453600,12.22345361328125,-0.920257568359375,-0.596588134765625,-0.05413818359375
1737750716306521600,12.233521484375,-0.93060302734375,-0.6378326416015625,-0.1360931396484375
1737750716316589800,12.24358984375,-0.9214324951171875,-0.67498779296875,-0.200531005859375
1737750716326657800,12.25365771484375,-0.8907012939453125,-0.6739349365234375,-0.2680206298828125
1737750716336725800,12.263725830078124,-0.9137115478515625,-0.6920013427734375,-0.32061767578125
1737750716346793700,12.273793701171876,-0.8947296142578125,-0.7291259765625,-0.3320159912109375
1737750716356862000,12.283862060546875,-0.8955230712890625,-0.752349853515625,-0.3482818603515625
1737750716366929700,12.2939296875,-0.86859130859375,-0.7520904541015625,-0.3592071533203125
1737750716376997600,12.30399755859375,-0.8184051513671875,-0.728515625,-0.35400390625
1737750716387065600,12.314065673828125,-0.758575439453125,-0.7147979736328125,-0.3274688720703125
1737750716397134800,12.324134765625,-0.70050048828125,-0.7165985107421875,-0.3028411865234375
1737750716407202800,12.334202880859374,-0.645355224609375,-0.7108612060546875,-0.28570556640625
1737750716417270800,12.344270751953125,-0.6118316650390625,-0.6947021484375,-0.27301025390625
1737750716427338800,12.3543388671875,-0.5744476318359375,-0.679656982421875,-0.260986328125
1737750716437406700,12.36440673828125,-0.5670928955078125,-0.6693267822265625,-0.2465972900390625
1737750716447474700,12.374474609375,-0.581390380859375,-0.6920013427734375,-0.2495269775390625
1737750716457542700,12.384542724609375,-0.5991363525390625,-0.7171478271484375,-0.2508544921875
1737750716467611000,12.39461083984375,-0.6217041015625,-0.7255706787109375,-0.2378997802734375
1737750716477678800,12.404678955078126,-0.6359100341796875,-0.7196807861328125,-0.2025604248046875
1737750716487746800,12.414746826171875,-0.634429931640625,-0.6982421875,-0.1554718017578125
1737750716497814500,12.424814453125,-0.637054443359375,-0.6564178466796875,-0.1246337890625
1737750716507882800,12.4348828125,-0.6386871337890625,-0.6124725341796875,-0.0966033935546875
1737750716517950700,12.44495068359375,-0.6395111083984375,-0.5966644287109375,-0.0410003662109375
1737750716528018700,12.455018798828124,-0.6574554443359375,-0.60687255859375,0.0212249755859375
1737750716538086700,12.465086669921876,-0.664794921875,-0.6284942626953125,0.062744140625
1737750716548155000,12.47515478515625,-0.670928955078125,-0.6496734619140625,0.0585174560546875
1737750716558222800,12.485222900390625,-0.678009033203125,-0.6742401123046875,0.014923095703125
1737750716568290800,12.495290771484376,-0.6724395751953125,-0.7134857177734375,-0.0307464599609375
1737750716578358500,12.505358642578125,-0.6414337158203125,-0.7676544189453125,-0.0634307861328125
1737750716588426800,12.5154267578125,-0.6031036376953125,-0.8154296875,-0.0843963623046875
1737750716598494700,12.52549462890625,-0.5612030029296875,-0.8309173583984375,-0.0915985107421875
1737750716608562700,12.535562744140625,-0.535675048828125,-0.8144378662109375,-0.095947265625
1737750716618630700,12.545630615234375,-0.5086212158203125,-0.7917633056640625,-0.0963592529296875
1737750716628699000,12.555698974609374,-0.4801025390625,-0.7798919677734375,-0.0831146240234375
1737750716638767600,12.565767578125,-0.471343994140625,-0.7826690673828125,-0.0821685791015625
1737750716648835600,12.575835693359375,-0.4722747802734375,-0.8073577880859375,-0.0859222412109375
1737750716658904000,12.585904052734374,-0.4738616943359375,-0.837310791015625,-0.06951904296875
1737750716668972000,12.595971923828126,-0.481536865234375,-0.8655242919921875,-0.049072265625
1737750716679040300,12.606040283203125,-0.4958343505859375,-0.881134033203125,-0.0320892333984375
1737750716689108200,12.616108154296874,-0.481414794921875,-0.884490966796875,-0.0214996337890625
1737750716699176200,12.62617626953125,-0.470977783203125,-0.890899658203125,-0.0214385986328125
1737750716709244000,12.636243896484375,-0.429473876953125,-0.908538818359375,-0.0287628173828125
1737750716719312100,12.64631201171875,-0.3922119140625,-0.930694580078125,-0.0489959716796875
1737750716729380000,12.656380126953126,-0.338836669921875,-0.9637908935546875,-0.0914764404296875
1737750716739448000,12.666447998046875,-0.298431396484375,-1.008148193359375,-0.1454010009765625
1737750716749516000,12.67651611328125,-0.270599365234375,-1.05474853515625,-0.2154083251953125
1737750716759584300,12.686584228515626,-0.2714080810546875,-1.0835113525390625,-0.2694091796875
1737750716769652200,12.69665234375,-0.2630462646484375,-1.10015869140625,-0.26812744140625
1737750716779720200,12.70672021484375,-0.2360992431640625,-1.11590576171875,-0.2123565673828125
1737750716789788000,12.716787841796876,-0.2643585205078125,-1.1277313232421875,-0.1107635498046875
1737750716799856000,12.726856201171875,-0.362823486328125,-1.12939453125,0.0544891357421875
1737750716809924000,12.736924072265625,-0.3980865478515625,-1.0772247314453125,0.2554473876953125
1737750716819992000,12.746991943359374,-0.4025421142578125,-0.93804931640625,0.335540771484375
1737750716830060000,12.75706005859375,-0.359283447265625,-0.8190155029296875,0.230743408203125
1737750716840128300,12.767128173828125,-0.2230072021484375,-0.7904205322265625,0.091400146484375
1737750716850196200,12.7771962890625,-0.1635284423828125,-0.8517913818359375,0.045562744140625
1737750716860264000,12.787263916015625,-0.2093353271484375,-0.9734649658203125,0.1045989990234375
1737750716870332000,12.797331787109375,-0.2579345703125,-1.019500732421875,0.19305419921875
1737750716880400100,12.807400146484374,-0.3509979248046875,-0.9391021728515625,0.1882781982421875
1737750716890469000,12.81746923828125,-0.3558197021484375,-0.845977783203125,0.08612060546875
1737750716900537000,12.827537109375,-0.299224853515625,-0.798919677734375,0.025177001953125
1737750716910605300,12.837605224609375,-0.26739501953125,-0.8395843505859375,0.0089874267578125
1737750716920673000,12.847673095703126,-0.2572479248046875,-0.9427032470703125,0.0105743408203125
1737750716930741000,12.857740966796875,-0.3144989013671875,-1.0199127197265625,0.014190673828125
1737750716940809000,12.86780908203125,-0.4353179931640625,-1.0479278564453125,0.0077972412109375
1737750716950877200,12.877877197265626,-0.5098724365234375,-1.052490234375,0.0197296142578125
1737750716960945200,12.887945068359375,-0.4843597412109375,-1.044464111328125,0.036712646484375
1737750716971013000,12.89801318359375,-0.40240478515625,-1.0433197021484375,0.0309906005859375
1737750716981081000,12.9080810546875,-0.373291015625,-1.0726470947265625,0.0072784423828125
1737750716991149300,12.9181494140625,-0.3591766357421875,-1.12164306640625,-0.0140228271484375
1737750717001217000,12.928217041015625,-0.3437042236328125,-1.1480255126953125,-0.020599365234375
1737750717011285000,12.938284912109374,-0.3163299560546875,-1.1478118896484375,-0.0474853515625
1737750717021353000,12.94835302734375,-0.2815704345703125,-1.1318817138671875,-0.09332275390625
1737750717031421200,12.958421142578125,-0.2316131591796875,-1.1096343994140625,-0.1355438232421875
1737750717041489200,12.9684892578125,-0.161834716796875,-1.0770721435546875,-0.1558837890625
1737750717051557000,12.97855712890625,-0.06854248046875,-1.0242919921875,-0.1777191162109375
1737750717061625000,12.988625,-0.0534820556640625,-0.9662322998046875,-0.2241058349609375
1737750717071693000,12.998693115234374,-0.0720062255859375,-0.9436798095703125,-0.279541015625
