time,seconds_elapsed,z,y,x
1737750704214828500,0.14182861328125,0.013761618174612522,-0.03104899637401104,-0.005890113301575184
1737750704224896800,0.151896728515625,0.019902868196368217,-0.03466689959168434,-0.005225388333201408
1737750704234964700,0.16196484375,0.013873204588890076,-0.03485012426972389,-0.006421147845685482
1737750704245032400,0.172032470703125,0.006306099239736795,-0.03584854304790497,-0.0020487697329372168
1737750704255100400,0.182100341796875,0.0007653924985788763,-0.02845188044011593,-0.0018935075495392084
1737750704265168600,0.192168701171875,-0.0010791128734126687,-0.019092468544840813,0.002263953210785985
1737750704275237600,0.202237548828125,0.004620584659278393,0.002067412016913295,0.002552107209339738
1737750704285305600,0.2123056640625,0.009998039342463017,0.025017201900482178,0.0017811221769079566
1737750704295373600,0.22237353515625,0.007864846847951412,0.03284662961959839,0.006706904619932175
1737750704305441500,0.232441650390625,-0.0032719597220420837,0.025533854961395264,0.00523710623383522
1737750704315509500,0.242509521484375,-0.005335377063602209,0.018365956842899323,0.0018309232546016574
1737750704325577500,0.252577392578125,-0.0035236284602433443,0.006205431651324034,-0.0036724992096424103
1737750704335645700,0.262645751953125,-0.0030061763245612383,-0.012619122862815857,-0.013026053085923195
1737750704345713700,0.272713623046875,0.005661347880959511,-0.030649522319436073,-0.0173233300447464
1737750704355781600,0.28278173828125,0.005774265620857477,-0.02708568051457405,-0.01720801554620266
1737750704365849600,0.292849609375,-0.004266117699444294,-0.025059280917048454,-0.014476943761110306
1737750704375917600,0.30291748046875,-0.012525911442935467,-0.020085826516151428,-0.013162673451006413
1737750704385985500,0.312985595703125,-0.01750602386891842,-0.013085708022117615,-0.016153668984770775
1737750704396053500,0.323053466796875,-0.013188506476581097,0.006339654792100191,-0.013184777460992336
1737750704406121500,0.33312158203125,-0.016232233494520187,0.020563865080475807,-0.009944776073098183
1737750704416189700,0.343189697265625,-0.016757141798734665,0.028130171820521355,-0.007902397774159908
1737750704426257700,0.353257568359375,-0.010841995477676392,0.028016719967126846,-0.006444850005209446
1737750704436325600,0.36332568359375,-0.005892510060220957,0.03569008782505989,-0.006717823911458254
1737750704446393600,0.3733935546875,-0.005821137689054012,0.03893514722585678,-0.0034410704392939806
1737750704456461600,0.383461669921875,-0.008052600547671318,0.05307866260409355,-0.0014351775171235204
1737750704466529500,0.393529541015625,-0.01537629310041666,0.05548296496272087,-0.0005289037944748998
1737750704476597500,0.403597412109375,-0.0226786807179451,0.035954538732767105,-0.0009912285022437572
1737750704486665500,0.41366552734375,-0.022727683186531067,0.01835796795785427,-0.008402006700634956
1737750704496733700,0.423733642578125,-0.0202725138515234,0.005471730604767799,-0.012204201892018318
1737750704506801700,0.4338017578125,-0.01264149323105812,-0.009897904470562935,-0.01395975798368454
1737750704516869600,0.44386962890625,-0.004768922459334135,-0.01907568983733654,-0.02081792987883091
1737750704526937600,0.4539375,-0.0006828344776295125,-0.013307549990713596,-0.019810456782579422
1737750704537005600,0.464005615234375,0.0003384877636563033,0.004493551794439554,-0.014970693737268448
1737750704547073500,0.474073486328125,-0.008503739722073078,0.0201601292937994,-0.008412659168243408
1737750704557141500,0.4841416015625,-0.013578925281763077,0.03218377009034157,0.0014365090755745769
1737750704567209500,0.49420947265625,-0.017785655334591866,0.041010282933712006,0.004069842863827944
1737750704577277700,0.504277587890625,-0.020542293787002563,0.04334054887294769,0.001142229768447578
1737750704587345700,0.514345703125,-0.013623666949570179,0.031023163348436356,-0.005319930613040924
1737750704597413600,0.52441357421875,-0.007466970942914486,0.009940248914062977,-0.009222793392837048
1737750704607481600,0.534481689453125,-0.0000031957933970261365,-0.001663410454057157,-0.010692591778934002
1737750704617549600,0.544549560546875,0.003061569994315505,-0.005571599118411541,-0.011542672291398048
1737750704627617500,0.554617431640625,-0.008645686320960522,-0.003849599277600646,-0.012998622842133045
1737750704637685500,0.564685546875,-0.01992763578891754,-0.0006775081856176257,-0.009677927009761333
1737750704647753500,0.57475341796875,-0.030307572335004807,0.004110322799533606,-0.00944996066391468
1737750704657821400,0.584821533203125,-0.03377607464790344,0.015456720255315304,-0.008206796832382679
1737750704667889700,0.5948896484375,-0.03857162594795227,0.021989721804857254,-0.0023371900897473097
1737750704677957600,0.60495751953125,-0.040825992822647095,0.027652399614453316,-0.0016674051294103265
1737750704688025600,0.615025634765625,-0.038604915142059326,0.02761405147612095,-0.002767290687188506
1737750704698093300,0.62509326171875,-0.03569887578487396,0.020118318498134613,-0.004086886998265982
1737750704708161500,0.63516162109375,-0.026853984221816063,-0.003849865635856986,-0.008471248671412468
1737750704718229500,0.6452294921875,-0.014140320010483265,-0.026572221890091896,-0.01714383251965046
1737750704728297500,0.65529736328125,-0.0023763386998325586,-0.0490274652838707,-0.02563399076461792
1737750704738365400,0.665365478515625,0.009336776100099087,-0.0700741559267044,-0.034089792519807816
1737750704748433700,0.67543359375,0.01577523536980152,-0.06961609423160553,-0.04066726937890053
1737750704758501600,0.685501708984375,0.011146394535899162,-0.05377960950136185,-0.036731913685798645
1737750704768569300,0.6955693359375,0.003251719754189253,-0.03554148226976395,-0.03243863210082054
1737750704778638600,0.705638671875,-0.01079805288463831,-0.02539164200425148,-0.028483040630817413
1737750704788706600,0.71570654296875,-0.02166295051574707,-0.013996775262057781,-0.019451994448900223
1737750704798774500,0.7257744140625,-0.028556544333696365,-0.003899933071807027,-0.01751241460442543
1737750704808842500,0.735842529296875,-0.02749340981245041,0.0057012951001524925,-0.016951553523540497
1737750704818910700,0.74591064453125,-0.019657591357827187,0.005658951122313738,-0.01967330276966095
1737750704828978400,0.755978515625,-0.014937670901417732,-0.006089583970606327,-0.020192353054881096
1737750704839046400,0.76604638671875,-0.011640943586826324,-0.017004815861582756,-0.02243713289499283
1737750704849114400,0.7761142578125,-0.009374327026307583,-0.024811606854200363,-0.025546371936798096
1737750704859182600,0.7861826171875,-0.013320865109562874,-0.020189955830574036,-0.026402579620480537
1737750704869250600,0.79625048828125,-0.014389059506356716,-0.01846582628786564,-0.027413781732320786
1737750704879318500,0.806318603515625,-0.013202354311943054,-0.00660437298938632,-0.025286447256803513
1737750704889386500,0.816386474609375,-0.016345683485269547,0.008226770907640457,-0.02341078408062458
1737750704899454700,0.826454833984375,-0.018980082124471664,0.036076512187719345,-0.015934491530060768
1737750704909522400,0.8365224609375,-0.0271325521171093,0.05343472957611084,-0.009687514975667
1737750704919590400,0.84659033203125,-0.03819798678159714,0.06398191303014755,-0.00526720006018877
1737750704929658400,0.856658447265625,-0.03964168578386307,0.06619473546743393,-0.006476275157183409
1737750704939726600,0.8667265625,-0.03525332733988762,0.05844733119010925,-0.0046243127435445786
1737750704949794600,0.876794677734375,-0.03193715959787369,0.04158366098999977,-0.01064811646938324
1737750704959862500,0.886862548828125,-0.019827233627438545,0.02304886095225811,-0.01804691180586815
1737750704969930500,0.896930419921875,-0.010450510308146477,0.025666480883955956,-0.021196898072957993
1737750704979998500,0.90699853515625,-0.002641589380800724,0.033187516033649445,-0.023984162136912346
1737750704990066400,0.91706640625,-0.0031909996178001165,0.07032449543476105,-0.016928117722272873
1737750705000134400,0.927134521484375,-0.03148016333580017,0.1055045872926712,-0.006687730085104704
1737750705010202400,0.937202392578125,-0.050877027213573456,0.10890011489391327,-0.0010423612548038363
1737750705020270600,0.9472705078125,-0.055212922394275665,0.099849633872509,-0.0026791400741785765
1737750705030338600,0.957338623046875,-0.04091467708349228,0.07866977900266647,-0.014374944381415844
1737750705040406500,0.967406494140625,-0.02846226841211319,0.05047622323036194,-0.029512351378798485
1737750705050474500,0.977474609375,-0.025374598801136017,0.025194302201271057,-0.03725442662835121
1737750705060542500,0.98754248046875,-0.026283269748091698,0.021269336342811584,-0.04086540639400482
1737750705070610400,0.9976103515625,-0.03497689217329025,0.03934341296553612,-0.037207022309303284
1737750705080678400,1.007678466796875,-0.03971598669886589,0.05338839069008827,-0.0372307263314724
1737750705090746400,1.017746337890625,-0.03562989830970764,0.05686195194721222,-0.03858733922243118
1737750705100814600,1.027814697265625,-0.034566231071949005,0.07125580310821533,-0.03777720779180527
1737750705110882600,1.037882568359375,-0.04249952360987663,0.07883116602897644,-0.03572870418429375
1737750705120950500,1.047950439453125,-0.052685316652059555,0.07172825187444687,-0.03349537402391434
1737750705131018500,1.0580185546875,-0.05305176600813866,0.06951595842838287,-0.029263611882925034
1737750705141086500,1.06808642578125,-0.04133785143494606,0.08431035280227661,-0.02883271314203739
1737750705151154400,1.078154541015625,-0.01954547129571438,0.10623296350240707,-0.028966138139367104
1737750705161222400,1.088222412109375,0.003184075467288494,0.15161696076393127,-0.027466511353850365
1737750705171290400,1.098290283203125,-0.0020839234348386526,0.21986578404903412,-0.018549982458353043
1737750705181358600,1.108358642578125,-0.033423203974962234,0.25858256220817566,-0.007928497157990932
1737750705191426600,1.118426513671875,-0.05252312868833542,0.26367318630218506,-0.007389472797513008
1737750705201494500,1.12849462890625,-0.04063770920038223,0.2607189416885376,-0.014156565070152283
1737750705211562800,1.138562744140625,-0.024530377238988876,0.25705602765083313,-0.02407710626721382
1737750705221630500,1.14863037109375,-0.01770070008933544,0.23864559829235077,-0.032889507710933685
1737750705231698400,1.158698486328125,-0.010877414606511593,0.21563588082790375,-0.04152587056159973
1737750705241766400,1.168766357421875,-0.018083661794662476,0.2024945169687271,-0.04891641065478325
1737750705251834600,1.178834716796875,-0.024589233100414276,0.19359317421913147,-0.05349837988615036
1737750705261902600,1.188902587890625,-0.0348258912563324,0.2010928988456726,-0.05871444568037987
1737750705271970600,1.198970458984375,-0.061946459114551544,0.2089228481054306,-0.06653402000665665
1737750705282038500,1.20903857421875,-0.09324952214956284,0.2098722755908966,-0.07165474444627762
1737750705292106800,1.219106689453125,-0.12596911191940308,0.210535928606987,-0.07064274698495865
1737750705302174500,1.229174560546875,-0.1648440808057785,0.21445636451244354,-0.07486598193645477
1737750705312242400,1.239242431640625,-0.24061420559883118,0.13653308153152466,-0.09713347256183624
1737750705322310400,1.249310302734375,-0.23794890940189362,0.1777481585741043,-0.11300618201494217
1737750705332378600,1.259378662109375,-0.23460771143436432,0.24177880585193634,-0.10519672930240631
1737750705342446600,1.269446533203125,-0.2640412449836731,0.3035276532173157,-0.09228412061929703
1737750705352514600,1.2795146484375,-0.2980700433254242,0.3769749701023102,-0.08016514033079147
1737750705362582500,1.28958251953125,-0.34191206097602844,0.473929762840271,-0.07238338887691498
1737750705372651500,1.299651611328125,-0.40976354479789734,0.583088219165802,-0.059663064777851105
1737750705382719500,1.309719482421875,-0.5124385356903076,0.6752822995185852,-0.044447094202041626
1737750705392787500,1.319787353515625,-0.6423720121383667,0.7242463827133179,-0.037092242389917374
1737750705402855700,1.329855712890625,-0.7629690170288086,0.7196487188339233,-0.04086833819746971
1737750705412923600,1.339923583984375,-0.8827212452888489,0.679701030254364,-0.03993889316916466
1737750705422991600,1.34999169921875,-0.9673812985420227,0.5844916701316833,-0.057434797286987305
1737750705433059300,1.360059326171875,-0.9907308220863342,0.4419984519481659,-0.08049936592578888
1737750705443127600,1.37012744140625,-0.9802017211914062,0.2547694444656372,-0.12952657043933868
1737750705453195500,1.380195556640625,-0.9519248008728027,0.007230482529848814,-0.1946333944797516
1737750705463263500,1.390263427734375,-0.9140623807907104,-0.2853910028934479,-0.2729843854904175
1737750705473331500,1.40033154296875,-0.8722747564315796,-0.6305230855941772,-0.3626517057418823
1737750705483399700,1.410399658203125,-0.8558267951011658,-0.9143417477607727,-0.45700377225875854
1737750705493467600,1.420467529296875,-0.84953373670578,-1.134361743927002,-0.5259966850280762
1737750705503535600,1.43053564453125,-0.9410095810890198,-1.322867512702942,-0.584973156452179
1737750705513603300,1.440603271484375,-0.8559679388999939,-1.3952751159667969,-0.6243610978126526
1737750705523671600,1.450671630859375,-0.7388948202133179,-1.2841209173202515,-0.6261819005012512
1737750705533739500,1.460739501953125,-0.6592908501625061,-1.025710940361023,-0.5767541527748108
1737750705543807500,1.470807373046875,-0.6285054683685303,-0.7225803136825562,-0.4879470467567444
1737750705553875500,1.48087548828125,-0.6611942052841187,-0.4197019338607788,-0.38566166162490845
1737750705563943700,1.490943603515625,-0.7044079899787903,-0.11527998745441437,-0.29328033328056335
1737750705574011600,1.50101171875,-0.7087395787239075,0.15111282467842102,-0.21414265036582947
1737750705584079600,1.51107958984375,-0.6784895658493042,0.34385350346565247,-0.14464959502220154
1737750705594147300,1.521147216796875,-0.6391615867614746,0.4132586717605591,-0.0938737615942955
1737750705604215600,1.531215576171875,-0.6017572283744812,0.3835838735103607,-0.06741472333669662
1737750705614283500,1.541283447265625,-0.5468207597732544,0.2896091938018799,-0.06739821285009384
1737750705624351500,1.5513515625,-0.48412540555000305,0.15456587076187134,-0.09206201881170273
1737750705634419500,1.56141943359375,-0.4489857852458954,0.002144643571227789,-0.13096919655799866
1737750705644488200,1.57148828125,-0.46976590156555176,-0.14853328466415405,-0.16793440282344818
1737750705654556200,1.58155615234375,-0.5071577429771423,-0.23778752982616425,-0.19043119251728058
1737750705664624000,1.5916240234375,-0.503890872001648,-0.34907224774360657,-0.197835311293602
1737750705674692000,1.601692138671875,-0.48967596888542175,-0.42332303524017334,-0.1988222897052765
1737750705684760000,1.611760009765625,-0.45794519782066345,-0.4626272916793823,-0.19939114153385162
1737750705694828000,1.621828125,-0.41243258118629456,-0.4766019582748413,-0.18615256249904633
1737750705704896300,1.631896240234375,-0.37783944606781006,-0.4483974874019623,-0.15004462003707886
1737750705714964200,1.641964111328125,-0.3864254653453827,-0.40189602971076965,-0.10116550326347351
1737750705725032200,1.6520322265625,-0.4295188784599304,-0.3459531366825104,-0.04204545542597771
1737750705735100000,1.662099853515625,-0.4472193121910095,-0.2989360988140106,0.012206332758069038
1737750705745168100,1.672168212890625,-0.4325551390647888,-0.27510321140289307,0.06501442193984985
1737750705755236000,1.682236083984375,-0.3864148259162903,-0.2506498098373413,0.1170126423239708
1737750705765304000,1.692303955078125,-0.3379918932914734,-0.22719240188598633,0.16462622582912445
1737750705775372000,1.7023720703125,-0.31190091371536255,-0.21012181043624878,0.19176223874092102
1737750705785440300,1.712440185546875,-0.30046769976615906,-0.22676444053649902,0.22364161908626556
1737750705795508200,1.72250830078125,-0.28559473156929016,-0.217429518699646,0.24258095026016235
1737750705805576200,1.732576171875,-0.29052823781967163,-0.2172846496105194,0.2636396288871765
1737750705815644000,1.742643798828125,-0.31310439109802246,-0.20828929543495178,0.2787594497203827
1737750705825712000,1.752712158203125,-0.29224252700805664,-0.1870282143354416,0.2679702043533325
1737750705835780000,1.762780029296875,-0.24470828473567963,-0.1269369125366211,0.25137948989868164
1737750705845848000,1.77284814453125,-0.21004778146743774,-0.06311745196580887,0.24667608737945557
1737750705855916000,1.782916015625,-0.2058522254228592,0.018660768866539,0.2411087602376938
1737750705865984300,1.792984375,-0.21117961406707764,0.07457277178764343,0.2445567548274994
1737750705876052200,1.80305224609375,-0.21745136380195618,0.10643988847732544,0.24377404153347015
1737750705886120200,1.8131201171875,-0.22990404069423676,0.10835842788219452,0.2418736219406128
1737750705896188000,1.82318798828125,-0.25105032324790955,0.06970611214637756,0.23288065195083618
1737750705906256100,1.833256103515625,-0.25557398796081543,0.017239972949028015,0.2302185595035553
1737750705916324000,1.843323974609375,-0.2353518009185791,-0.05836104601621628,0.24689394235610962
1737750705926392000,1.85339208984375,-0.2091233879327774,-0.1312893182039261,0.25860387086868286
1737750705936460000,1.8634599609375,-0.18579091131687164,-0.11017763614654541,0.26749613881111145
1737750705946528300,1.8735283203125,-0.11473403871059418,0.026196982711553574,0.2682138681411743
1737750705956596200,1.88359619140625,-0.011007643304765224,0.24012471735477448,0.28967124223709106
1737750705966664200,1.893664306640625,0.09171793609857559,0.49818527698516846,0.32610300183296204
1737750705976732000,1.90373193359375,0.16257479786872864,0.7905207276344299,0.37550944089889526
1737750705986800000,1.913800048828125,0.2110414057970047,1.066373348236084,0.4261893928050995
1737750705996868000,1.9238681640625,0.2298068255186081,1.3007392883300781,0.46360093355178833
1737750706006936000,1.93393603515625,0.23633423447608948,1.4878636598587036,0.48528361320495605
1737750706017004000,1.944004150390625,0.2448371797800064,1.6436095237731934,0.49887531995773315
1737750706027072300,1.954072265625,0.248753622174263,1.7499226331710815,0.49366483092308044
1737750706037140200,1.96414013671875,0.23980167508125305,1.7848801612854004,0.4756501615047455
1737750706047208200,1.974208251953125,0.20868369936943054,1.7419227361679077,0.4505266845226288
1737750706057276000,1.98427587890625,0.16181500256061554,1.658801794052124,0.4274543821811676
1737750706067344100,1.99434423828125,0.12172563374042511,1.5462379455566406,0.41291913390159607
1737750706077412000,2.004412109375,0.09993725270032883,1.3590041399002075,0.3915480673313141
1737750706087480000,2.01447998046875,0.09716197103261948,1.1024658679962158,0.3749573528766632
1737750706097548000,2.024548095703125,0.08661185950040817,0.816661536693573,0.3402217626571655
1737750706107617000,2.034616943359375,0.06401706486940384,0.5422438383102417,0.2964591085910797
1737750706117685000,2.04468505859375,0.03460165113210678,0.2850964665412903,0.24067465960979462
1737750706127753000,2.0547529296875,0.009341304190456867,0.02911447547376156,0.20010405778884888
1737750706137821200,2.0648212890625,-0.005045891273766756,-0.10717252641916275,0.15162548422813416
1737750706147889200,2.07488916015625,-0.022644858807325363,-0.16179049015045166,0.1585150808095932
1737750706157957000,2.08495703125,-0.06628821045160294,-0.36999163031578064,0.1375751793384552
1737750706168025000,2.095025146484375,-0.2057182788848877,-0.5473325848579407,0.05705529823899269
1737750706178093300,2.10509326171875,-0.32634401321411133,-0.5643291473388672,0.025430524721741676
1737750706188161000,2.1151611328125,-0.33266717195510864,-0.5043656826019287,0.05759964510798454
1737750706198229000,2.12522900390625,-0.26857900619506836,-0.3246249556541443,0.14126898348331451
1737750706208297000,2.135296875,-0.17868399620056152,0.058402057737112045,0.231363445520401
1737750706218365200,2.145365234375,-0.08666112273931503,0.45051977038383484,0.3083021640777588
1737750706228433200,2.15543310546875,-0.047500938177108765,0.635172963142395,0.30229222774505615
1737750706238501000,2.165501220703125,-0.10742899030447006,0.5781711935997009,0.1711576282978058
1737750706248569000,2.175569091796875,-0.17637130618095398,0.43534108996391296,0.013082512654364109
1737750706258637300,2.18563720703125,-0.190604567527771,0.2783317565917969,-0.09678113460540771
1737750706268705000,2.195705078125,-0.1750676929950714,0.12934760749340057,-0.15660744905471802
1737750706278773000,2.20577294921875,-0.15291045606136322,-0.011700065806508064,-0.21392640471458435
1737750706288841000,2.215841064453125,-0.11901693791151047,-0.06749195605516434,-0.275894433259964
1737750706298909200,2.2259091796875,-0.06598913669586182,-0.0175787266343832,-0.3298735022544861
1737750706308977200,2.23597705078125,-0.01924746483564377,0.11181201785802841,-0.35099610686302185
1737750706319045000,2.246045166015625,-0.0142329977825284,0.2988186478614807,-0.32853448390960693
1737750706329113000,2.256113037109375,-0.03455584496259689,0.4543747007846832,-0.3060688376426697
1737750706339181300,2.266181396484375,-0.045274537056684494,0.5421636700630188,-0.2989179790019989
1737750706349249000,2.2762490234375,-0.04307236894965172,0.5811749696731567,-0.2922731339931488
1737750706359317000,2.28631689453125,-0.040599092841148376,0.6110287308692932,-0.2898848056793213
1737750706369385000,2.296385009765625,-0.04465987905859947,0.6143302917480469,-0.2965632379055023
1737750706379453200,2.306453125,-0.04761625453829765,0.6301262974739075,-0.30808964371681213
1737750706389521200,2.316521240234375,-0.030858846381306648,0.6520371437072754,-0.3252260386943817
1737750706399589000,2.326589111328125,0.01774597354233265,0.6307382583618164,-0.3532978892326355
1737750706409657000,2.336656982421875,0.07086671888828278,0.564789354801178,-0.39816948771476746
1737750706419725000,2.34672509765625,0.09142924845218658,0.4712902903556824,-0.4343740940093994
1737750706429793000,2.35679296875,0.06100236624479294,0.3825281858444214,-0.46743881702423096
1737750706439861000,2.366861083984375,0.015660185366868973,0.2847297489643097,-0.5033521056175232
1737750706449929000,2.376928955078125,-0.010073406621813774,0.144522026181221,-0.5455522537231445
1737750706459997200,2.3869970703125,-0.01474565640091896,-0.04528838396072388,-0.579964816570282
1737750706470065200,2.397065185546875,-0.009286975488066673,-0.26520851254463196,-0.5988932847976685
1737750706480133000,2.407133056640625,-0.018095912411808968,-0.487348347902298,-0.5983614325523376
1737750706490201000,2.417201171875,-0.06419762969017029,-0.7248799800872803,-0.5910619497299194
1737750706500269000,2.42726904296875,-0.14481337368488312,-0.9316749572753906,-0.5964122414588928
1737750706510337000,2.4373369140625,-0.23956279456615448,-1.0591859817504883,-0.6072952747344971
1737750706520405000,2.447405029296875,-0.2989933490753174,-1.3076485395431519,-0.5871518850326538
1737750706530473000,2.457472900390625,-0.34159380197525024,-1.5197118520736694,-0.5950796008110046
1737750706540541200,2.467541259765625,-0.3440849483013153,-1.5547014474868774,-0.6284309029579163
1737750706550609200,2.477609130859375,-0.29779812693595886,-1.4554643630981445,-0.6307126879692078
1737750706560677000,2.487677001953125,-0.23372167348861694,-1.231048822402954,-0.6155635714530945
1737750706570745000,2.4977451171875,-0.1779279261827469,-0.9046699404716492,-0.5946140885353088
1737750706580813000,2.50781298828125,-0.12435896694660187,-0.5224879384040833,-0.5599823594093323
1737750706590881000,2.517881103515625,-0.065863698720932,-0.19374629855155945,-0.49918052554130554
1737750706600949000,2.527948974609375,-0.02166827768087387,-0.002276203827932477,-0.4272115230560303
1737750706611017000,2.538016845703125,-0.017734521999955177,0.05859673395752907,-0.3957558572292328
1737750706621085200,2.548085205078125,-0.04387051984667778,0.019168367609381676,-0.3849455416202545
1737750706631153200,2.558153076171875,-0.07480207085609436,-0.09507405012845993,-0.3808075189590454
1737750706641221000,2.56822119140625,-0.11129296571016312,-0.30138885974884033,-0.38246962428092957
1737750706651289000,2.5782890625,-0.1580522209405899,-0.5136215090751648,-0.38706570863723755
1737750706661356800,2.588356689453125,-0.18745751678943634,-0.6874662637710571,-0.3742404282093048
1737750706671424800,2.5984248046875,-0.20452411472797394,-0.832958996295929,-0.354718953371048
1737750706681493000,2.608492919921875,-0.20094536244869232,-0.9596610069274902,-0.32907721400260925
1737750706691561000,2.61856103515625,-0.20025373995304108,-1.0501807928085327,-0.2992231845855713
1737750706701629000,2.62862890625,-0.20691882073879242,-1.09902822971344,-0.25936418771743774
1737750706711697000,2.63869677734375,-0.22189591825008392,-1.13031804561615,-0.22509197890758514
1737750706721765000,2.64876513671875,-0.22919483482837677,-1.110160231590271,-0.1952909380197525
1737750706731833000,2.6588330078125,-0.22869150340557098,-0.999415397644043,-0.16601772606372833
1737750706741900800,2.66890087890625,-0.2356330305337906,-0.8294122219085693,-0.12249289453029633
1737750706751968800,2.67896875,-0.2631448209285736,-0.625311017036438,-0.07400152087211609
1737750706762037000,2.689037109375,-0.299952894449234,-0.4382348656654358,-0.03567943349480629
1737750706772105000,2.69910498046875,-0.32150745391845703,-0.31048864126205444,-0.0036613137926906347
1737750706782173000,2.7091728515625,-0.3164711594581604,-0.21525399386882782,0.021649101749062538
1737750706792241000,2.719240966796875,-0.295582115650177,-0.16428188979625702,0.03068946860730648
1737750706802309000,2.72930908203125,-0.2745210528373718,-0.16030871868133545,0.03783899173140526
1737750706812377000,2.739377197265625,-0.26844316720962524,-0.16800391674041748,0.042928826063871384
1737750706822444800,2.74944482421875,-0.2699473202228546,-0.150685116648674,0.058878231793642044
1737750706832513000,2.759512939453125,-0.27679964900016785,-0.1308341771364212,0.08797512948513031
1737750706842581000,2.7695810546875,-0.3111794590950012,-0.1365509182214737,0.15788443386554718
1737750706852649000,2.77964892578125,-0.34746500849723816,-0.12099380046129227,0.16541585326194763
1737750706862717000,2.789717041015625,-0.3023790419101715,-0.09001217782497406,0.16877996921539307
1737750706872785200,2.79978515625,-0.2314465343952179,-0.08152255415916443,0.2167954295873642
1737750706882853000,2.80985302734375,-0.17352038621902466,-0.06144684925675392,0.2748214304447174
1737750706892921000,2.819921142578125,-0.1374470740556717,-0.010999654419720173,0.33749309182167053
1737750706902988800,2.82998876953125,-0.11464828252792358,0.03995087742805481,0.4122847616672516
1737750706913057000,2.84005712890625,-0.09357894957065582,0.10632910579442978,0.4812031090259552
1737750706923125000,2.850125,-0.07364652305841446,0.1782991588115692,0.5471392273902893
1737750706933193000,2.86019287109375,-0.07243239134550095,0.24177880585193634,0.5910212397575378
1737750706943261000,2.870260986328125,-0.10729263722896576,0.28791168332099915,0.6040789484977722
1737750706953329200,2.8803291015625,-0.17246843874454498,0.30243709683418274,0.601781964302063
1737750706963397000,2.890397216796875,-0.2439415603876114,0.3024839758872986,0.5671409368515015
1737750706973465000,2.900465087890625,-0.29451924562454224,0.283218652009964,0.5173102617263794
1737750706983532800,2.91053271484375,-0.3130095899105072,0.2403785139322281,0.4620105028152466
1737750706993601000,2.92060107421875,-0.2944907546043396,0.16940714418888092,0.4046798348426819
1737750707003669000,2.9306689453125,-0.25707387924194336,0.057073138654232025,0.3323233425617218
1737750707013737000,2.940737060546875,-0.2181432545185089,-0.09234564006328583,0.2515541911125183
1737750707023805000,2.950804931640625,-0.19380755722522736,-0.2964780032634735,0.17373184859752655
1737750707033873200,2.960873046875,-0.19499079883098602,-0.5313738584518433,0.08136063814163208
1737750707043941000,2.970941162109375,-0.2224205583333969,-0.7980982661247253,-0.012989568524062634
1737750707054009000,2.981009033203125,-0.27049994468688965,-1.0612883567810059,-0.0945051982998848
1737750707064076800,2.991076904296875,-0.31217440962791443,-1.2977871894836426,-0.15245026350021362
1737750707074145000,3.00114501953125,-0.3426641523838043,-1.4995250701904297,-0.17697930335998535
1737750707084213000,3.011212890625,-0.36091291904449463,-1.659630298614502,-0.1868564337491989
1737750707094281000,3.021281005859375,-0.3720143139362335,-1.7962496280670166,-0.18074288964271545
1737750707104349000,3.031348876953125,-0.39106523990631104,-1.91792893409729,-0.17720220983028412
1737750707114417200,3.041417236328125,-0.44901615381240845,-2.0606703758239746,-0.17479391396045685
1737750707124485000,3.051485107421875,-0.542066216468811,-2.2234110832214355,-0.1659572720527649
1737750707134553900,3.061553955078125,-0.6759870052337646,-2.416736125946045,-0.15427212417125702
1737750707144622000,3.0716220703125,-0.839519202709198,-2.6486029624938965,-0.14021436870098114
1737750707154690000,3.08168994140625,-1.0149109363555908,-2.9229483604431152,-0.12527163326740265
1737750707164758000,3.091758056640625,-1.1921923160552979,-3.2331037521362305,-0.1082788035273552
1737750707174826000,3.101825927734375,-1.346699595451355,-3.5893423557281494,-0.09964989125728607
1737750707184894200,3.111894287109375,-1.475873589515686,-3.9605047702789307,-0.12548042833805084
1737750707194962000,3.1219619140625,-1.5977421998977661,-4.285572528839111,-0.1817636787891388
1737750707205030000,3.13202978515625,-1.6976128816604614,-4.514777183532715,-0.24200411140918732
1737750707215097900,3.142097900390625,-1.7815793752670288,-4.624244689941406,-0.2918502390384674
1737750707225166000,3.152166015625,-1.8433295488357544,-4.614996433258057,-0.3139517903327942
1737750707235234000,3.162234130859375,-1.8754278421401978,-4.484120845794678,-0.29027870297431946
1737750707245302000,3.172302001953125,-1.862094759941101,-4.254026889801025,-0.20806051790714264
1737750707255370000,3.182369873046875,-1.780056357383728,-3.9247946739196777,-0.08471035957336426
1737750707265438000,3.19243798828125,-1.6387897729873657,-3.4697747230529785,0.04428970068693161
1737750707275506000,3.202505859375,-1.488308310508728,-2.854041814804077,0.16225920617580414
1737750707285574000,3.212573974609375,-1.3759386539459229,-2.0774927139282227,0.2554621398448944
1737750707295641900,3.222641845703125,-1.3421961069107056,-1.230002999305725,0.3189798593521118
1737750707305710000,3.2327099609375,-1.3484721183776855,-0.4340822100639343,0.35437673330307007
1737750707315778000,3.242778076171875,-1.3552457094192505,0.2502114474773407,0.3867913782596588
1737750707325846000,3.252845947265625,-1.3310647010803223,0.8205752968788147,0.4298864006996155
1737750707335914000,3.2629140625,-1.251448392868042,1.292316198348999,0.4717446267604828
1737750707345982000,3.27298193359375,-1.1084566116333008,1.6279685497283936,0.5007501840591431
1737750707356050000,3.2830498046875,-0.9276509284973145,1.8076107501983643,0.5017477869987488
1737750707366118000,3.293117919921875,-0.7678551077842712,1.821297526359558,0.4577134847640991
1737750707376185900,3.303185791015625,-0.6753590106964111,1.6849082708358765,0.3722244203090668
1737750707386254000,3.313254150390625,-0.6523500680923462,1.409397006034851,0.26718083024024963
1737750707396322000,3.323322021484375,-0.6670515537261963,1.0287375450134277,0.16106505692005157
1737750707406390000,3.33339013671875,-0.6976107954978943,0.6400814652442932,0.0658317431807518
1737750707416458000,3.3434580078125,-0.7226852178573608,0.3065447509288788,-0.034932415932416916
1737750707426526000,3.35352587890625,-0.7395030856132507,0.061355236917734146,-0.13509070873260498
1737750707436594000,3.363593994140625,-0.7405909895896912,-0.07991001009941101,-0.23674224317073822
1737750707446662000,3.373661865234375,-0.7093960642814636,-0.11904649436473846,-0.3372339606285095
1737750707456729900,3.383729736328125,-0.6345652341842651,-0.07363693416118622,-0.4282829165458679
1737750707466798000,3.393798095703125,-0.5369702577590942,0.04211975634098053,-0.5034101605415344
1737750707476866000,3.403865966796875,-0.43282386660575867,0.2006649225950241,-0.5509099960327148
1737750707486934000,3.41393408203125,-0.3366936147212982,0.37193068861961365,-0.5826884508132935
1737750707497002000,3.424001953125,-0.26178261637687683,0.5215973854064941,-0.6030371189117432
1737750707507070000,3.434070068359375,-0.21713951230049133,0.6353389024734497,-0.6171169877052307
1737750707517138000,3.444137939453125,-0.18721143901348114,0.7216048240661621,-0.6330480575561523
1737750707527206000,3.454205810546875,-0.1753891259431839,0.7672393918037415,-0.656610906124115
1737750707537273900,3.46427392578125,-0.16773547232151031,0.7841531038284302,-0.69330894947052
1737750707547342000,3.474342041015625,-0.1806909441947937,0.7628494501113892,-0.7334694266319275
1737750707557410000,3.48441015625,-0.19783052802085876,0.7058466076850891,-0.7716472148895264
1737750707567478000,3.49447802734375,-0.2125394344329834,0.6284343600273132,-0.8067364692687988
1737750707577546000,3.5045458984375,-0.2035089135169983,0.5472023487091064,-0.8383340835571289
1737750707587614000,3.514614013671875,-0.18800638616085052,0.473292738199234,-0.8859436511993408
1737750707597682000,3.524681884765625,-0.1848161816596985,0.3850579261779785,-0.9208323955535889
1737750707607750000,3.53475,-0.1960344910621643,0.28639528155326843,-0.9547922611236572
1737750707617817900,3.54481787109375,-0.21605053544044495,0.19533035159111023,-0.9766397476196289
1737750707627886000,3.554885986328125,-0.23640933632850647,0.11338461190462112,-0.9912607669830322
1737750707637954000,3.5649541015625,-0.26917552947998047,0.03063966892659664,-0.9929196834564209
1737750707648025000,3.575025146484375,-0.29755499958992004,-0.06840222328901291,-0.9770104885101318
1737750707658093300,3.58509326171875,-0.3352661430835724,-0.17504771053791046,-0.9692140817642212
1737750707668161300,3.595161376953125,-0.3863977789878845,-0.3052685558795929,-0.9694058299064636
1737750707678229000,3.60522900390625,-0.4481487572193146,-0.46803271770477295,-0.9681605100631714
1737750707688297000,3.615296875,-0.5050565004348755,-0.6698049902915955,-0.9702971577644348
1737750707698365200,3.625365234375,-0.5261314511299133,-0.8937669992446899,-0.9756695628166199
1737750707708433200,3.63543310546875,-0.5068677067756653,-1.1142923831939697,-0.9765814542770386
1737750707718501000,3.645501220703125,-0.4440578818321228,-1.326528549194336,-0.984325110912323
1737750707728569000,3.655569091796875,-0.3360840082168579,-1.5183690786361694,-1.0159075260162354
1737750707738637300,3.66563720703125,-0.19325999915599823,-1.6939438581466675,-1.0626678466796875
1737750707748705000,3.675705078125,-0.029744314029812813,-1.8828107118606567,-1.0880978107452393
1737750707758774000,3.68577392578125,0.1486259549856186,-2.1421830654144287,-1.1177878379821777
1737750707768842200,3.69584228515625,0.2480100691318512,-2.58508563041687,-1.1661570072174072
1737750707778910200,3.70591015625,0.18469475209712982,-3.1563467979431152,-1.2415422201156616
1737750707788978200,3.715978271484375,-0.05688085779547691,-3.7177207469940186,-1.2276482582092285
1737750707799046100,3.726046142578125,-0.3521958589553833,-4.095064163208008,-1.1896828413009644
1737750707809114000,3.736114013671875,-0.5635650753974915,-4.23772668838501,-1.0689164400100708
1737750707819182000,3.74618212890625,-0.6468093991279602,-4.100455284118652,-0.8773645758628845
1737750707829250000,3.75625,-0.6476144790649414,-3.7134134769439697,-0.6557557582855225
1737750707839318000,3.766318115234375,-0.633237898349762,-3.228257179260254,-0.44810160994529724
1737750707849386200,3.77638623046875,-0.6292791366577148,-2.818357229232788,-0.27731895446777344
1737750707859454200,3.7864541015625,-0.6510787010192871,-2.6390326023101807,-0.1940554976463318
1737750707869522200,3.796522216796875,-0.7327815294265747,-2.7283389568328857,-0.22543871402740479
1737750707879590100,3.806590087890625,-0.8720883131027222,-2.993467092514038,-0.3491649031639099
1737750707889658000,3.816658203125,-1.0082240104675293,-3.3314969539642334,-0.529522716999054
1737750707899726000,3.82672607421875,-1.092828631401062,-3.6647095680236816,-0.7345948815345764
1737750707909794000,3.8367939453125,-1.0994175672531128,-3.935485363006592,-0.9295833110809326
1737750707919862000,3.846862060546875,-1.0342823266983032,-4.087716102600098,-1.0868192911148071
1737750707929930200,3.85693017578125,-0.9174858927726746,-4.109556198120117,-1.197624921798706
1737750707939998200,3.866998291015625,-0.7833677530288696,-3.993945598602295,-1.2593973875045776
1737750707950066200,3.877066162109375,-0.6767723560333252,-3.7524001598358154,-1.290597915649414
1737750707960134100,3.887134033203125,-0.6096066236495972,-3.417635202407837,-1.301056981086731
1737750707970202000,3.8972021484375,-0.5750545263290405,-3.0127830505371094,-1.2980101108551025
1737750707980270000,3.90727001953125,-0.5330503582954407,-2.568598508834839,-1.269020438194275
1737750707990338000,3.917338134765625,-0.4632667303085327,-2.093966007232666,-1.1996017694473267
1737750708000406000,3.927406005859375,-0.37165316939353943,-1.554511308670044,-1.102604627609253
1737750708010474200,3.93747412109375,-0.2913072109222412,-0.9186648726463318,-1.0171581506729126
1737750708020542200,3.947542236328125,-0.24635598063468933,-0.18146327137947083,-0.9511842131614685
1737750708030610200,3.957610107421875,-0.26272910833358765,0.6351807117462158,-0.9111723303794861
1737750708040678100,3.96767822265625,-0.3130580484867096,1.4679895639419556,-0.8725059032440186
1737750708050746000,3.97774609375,-0.3077540993690491,2.236281156539917,-0.800749659538269
1737750708060814000,3.98781396484375,-0.17935112118721008,2.937361001968384,-0.6781982183456421
1737750708070882000,3.997882080078125,0.07179562747478485,3.6061882972717285,-0.5415431261062622
1737750708080950300,4.0079501953125,0.43575918674468994,4.249903678894043,-0.40635815262794495
1737750708091018200,4.018018310546875,0.88809734582901,4.852179527282715,-0.29684898257255554
1737750708101086200,4.028086181640625,1.3994253873825073,5.423905849456787,-0.18379166722297668
1737750708111154200,4.038154296875,1.9289674758911133,5.953904628753662,0.006834470201283693
1737750708121222100,4.04822216796875,2.553701400756836,6.4692487716674805,0.3607339560985565
1737750708131290000,4.0582900390625,3.4060375690460205,7.087762832641602,0.7468704581260681
1737750708141358000,4.068358154296875,4.137354373931885,7.671884059906006,0.9584288001060486
1737750708151426000,4.078426025390625,4.396107196807861,7.849266529083252,1.1942332983016968
1737750708161494300,4.088494384765625,3.8242218494415283,7.2482380867004395,1.5912853479385376
1737750708171562200,4.098562255859375,2.2111027240753174,5.827643394470215,1.9225444793701172
1737750708181630200,4.108630126953125,0.3434143662452698,4.212601184844971,2.023510456085205
1737750708191698200,4.1186982421875,-0.8437988758087158,3.0992610454559326,2.0703635215759277
1737750708201766100,4.12876611328125,-1.2881516218185425,2.341921091079712,1.8986940383911133
1737750708211834000,4.138834228515625,-1.1675220727920532,1.7268506288528442,1.465893030166626
1737750708221902000,4.148902099609375,-0.6848710179328918,1.1441768407821655,0.8818591833114624
1737750708231970000,4.158969970703125,-0.10970146209001541,0.4465162456035614,0.3880012631416321
1737750708242039300,4.169039306640625,0.05922044813632965,-0.40090399980545044,0.07440818846225739
1737750708252107300,4.179107177734375,-0.2826117277145386,-1.1578646898269653,-0.11589197814464569
1737750708262175000,4.189175048828125,-0.8360416293144226,-1.5850125551223755,-0.2233412116765976
1737750708272243000,4.199242919921875,-1.3101780414581299,-1.665756344795227,-0.27842655777931213
1737750708282311200,4.209311279296875,-1.5590592622756958,-1.4726276397705078,-0.33050334453582764
1737750708292379100,4.219379150390625,-1.5568815469741821,-1.0363869667053223,-0.37062227725982666
1737750708302447000,4.229447021484375,-1.391742467880249,-0.3765893578529358,-0.47530579566955566
1737750708312515300,4.239515380859375,-1.1562976837158203,0.37891268730163574,-0.6585464477539062
1737750708322583300,4.249583251953125,-0.9189304113388062,1.0713801383972168,-0.9097685813903809
1737750708332651300,4.2596513671875,-0.6266652345657349,1.5911023616790771,-1.1614713668823242
1737750708342719000,4.269718994140625,-0.27830034494400024,1.7945479154586792,-1.3654892444610596
1737750708352787200,4.279787109375,-0.03460431471467018,1.745753526687622,-1.4967583417892456
1737750708362855200,4.289855224609375,0.018758507445454597,1.5077934265136719,-1.4961167573928833
1737750708372923100,4.299923095703125,-0.0939512625336647,1.0944961309432983,-1.402721881866455
1737750708382991000,4.3099912109375,-0.3104787766933441,0.5224764943122864,-1.2793806791305542
1737750708393059300,4.320059326171875,-0.5088411569595337,-0.1573592573404312,-1.1894053220748901
1737750708403127300,4.330127197265625,-0.6169963479042053,-0.8419167995452881,-1.1368451118469238
1737750708413195000,4.340195068359375,-0.5988285541534424,-1.4190701246261597,-1.0897513628005981
1737750708423263000,4.350262939453125,-0.48898008465766907,-1.8027437925338745,-1.0640913248062134
1737750708433331200,4.360331298828125,-0.3600412607192993,-1.9675769805908203,-1.057481050491333
1737750708443399200,4.370399169921875,-0.2881244719028473,-1.9581106901168823,-0.9972859025001526
1737750708453467100,4.380467041015625,-0.29149043560028076,-1.7896026372909546,-0.8325217366218567
1737750708463535000,4.39053515625,-0.3526557981967926,-1.4414668083190918,-0.597143292427063
1737750708473603300,4.400603271484375,-0.42453983426094055,-0.9064438939094543,-0.366569459438324
1737750708483671300,4.41067138671875,-0.42037543654441833,-0.2246088683605194,-0.18408700823783875
1737750708493739000,4.420739013671875,-0.25148388743400574,0.5374214053153992,-0.03296434134244919
1737750708503807000,4.430806884765625,0.06767811626195908,1.3261839151382446,0.10820610076189041
1737750708513875200,4.440875244140625,0.395811527967453,2.0776617527008057,0.21685321629047394
1737750708523943200,4.450943115234375,0.6306794285774231,2.689786911010742,0.314929723739624
1737750708534011100,4.46101123046875,0.752555251121521,3.1049203872680664,0.4053826630115509
1737750708544079000,4.4710791015625,0.7520990371704102,3.2849574089050293,0.4613196849822998
1737750708554147300,4.481147216796875,0.6170538663864136,3.2015111446380615,0.4588288366794586
1737750708564215300,4.49121533203125,0.375679612159729,2.89387845993042,0.39520272612571716
1737750708574283000,4.501282958984375,0.12292219698429108,2.46909499168396,0.306156724691391
1737750708584351000,4.51135107421875,-0.04267742112278938,2.0488741397857666,0.22101493179798126
1737750708594419200,4.521419189453125,-0.0989588052034378,1.6659162044525146,0.12773026525974274
1737750708604487200,4.531487060546875,-0.0701279565691948,1.2944022417068481,0.007774033583700657
1737750708614555100,4.54155517578125,0.014051103964447975,0.9124871492385864,-0.14503921568393707
1737750708624623000,4.551623046875,0.10043951869010925,0.5351382493972778,-0.3174692988395691
1737750708634691300,4.56169140625,0.1424170583486557,0.20117253065109253,-0.49006929993629456
1737750708644759300,4.57175927734375,0.11783342808485031,-0.07310936599969864,-0.6377807259559631
1737750708654825500,4.581825439453125,0.04553978890180588,-0.2589218318462372,-0.7467687129974365
1737750708664893400,4.5918935546875,-0.03273078054189682,-0.3443501889705658,-0.8236222267150879
1737750708674961700,4.601961669921875,-0.10913820564746857,-0.31593504548072815,-0.8759469389915466
1737750708685029600,4.612029541015625,-0.14285355806350708,-0.19092680513858795,-0.9189133644104004
1737750708695097300,4.622097412109375,-0.14052541553974152,-0.0014868428697809577,-0.9618690609931946
1737750708705165300,4.632165283203125,-0.09882857650518417,0.22002796828746796,-1.0071766376495361
1737750708715233500,4.642233642578125,-0.033787257969379425,0.4390900135040283,-1.04448401927948
1737750708725301500,4.652301513671875,0.040659014135599136,0.6379677057266235,-1.0647059679031372
1737750708735369500,4.662369384765625,0.11120588332414627,0.8170596957206726,-1.0633463859558105
1737750708745437400,4.6724375,0.18460553884506226,0.9733994603157043,-1.0564632415771484
1737750708755505700,4.682505615234375,0.24587474763393402,1.092827558517456,-1.0380061864852905
1737750708765573400,4.692573486328125,0.29663965106010437,1.1687312126159668,-1.023031234741211
1737750708775641300,4.702641357421875,0.3366568386554718,1.1929153203964233,-0.9903544783592224
1737750708785709300,4.712709228515625,0.35819995403289795,1.1686310768127441,-0.9604685306549072
1737750708795777500,4.722777587890625,0.3623254597187042,1.0916802883148193,-0.9297944903373718
1737750708805845500,4.732845458984375,0.34584447741508484,0.9746155142784119,-0.8951550126075745
1737750708815913500,4.74291357421875,0.32076603174209595,0.8302910923957825,-0.8573035001754761
1737750708825981400,4.7529814453125,0.30137768387794495,0.6908101439476013,-0.8282049894332886
1737750708836049700,4.763049560546875,0.2994053363800049,0.5772284269332886,-0.797991156578064
1737750708846117400,4.773117431640625,0.31416964530944824,0.4848223328590393,-0.7702008485794067
1737750708856185300,4.783185302734375,0.32883593440055847,0.4074215590953827,-0.7378208041191101
1737750708866253300,4.79325341796875,0.3382731080055237,0.3374914824962616,-0.7101718187332153
1737750708876321500,4.803321533203125,0.34295734763145447,0.26737338304519653,-0.6871983408927917
1737750708886389500,4.813389404296875,0.3355071544647217,0.1890958845615387,-0.6845002770423889
1737750708896457500,4.82345751953125,0.3126271367073059,0.09612653404474258,-0.7126480340957642
1737750708906525400,4.833525390625,0.26772040128707886,-0.004700745455920696,-0.7768478393554688
1737750708916593700,4.84359375,0.20323380827903748,-0.10738318413496017,-0.861947774887085
1737750708926661400,4.853661376953125,0.12977424263954163,-0.20837265253067017,-0.9526401162147522
1737750708936729300,4.863729248046875,0.06430734694004059,-0.28479763865470886,-1.0446659326553345
1737750708946797300,4.87379736328125,0.012497149407863617,-0.3355870544910431,-1.1142481565475464
1737750708956865500,4.883865478515625,-0.023445671424269676,-0.3441171646118164,-1.1618434190750122
1737750708966933500,4.89393359375,-0.04351578652858734,-0.2927740812301636,-1.2064465284347534
1737750708977001500,4.90400146484375,-0.051899682730436325,-0.20023135840892792,-1.2526074647903442
1737750708987069400,4.9140693359375,-0.05235615000128746,-0.06900490075349808,-1.3093417882919312
1737750708997137700,4.9241376953125,-0.05745770037174225,0.06950823962688446,-1.3831689357757568
1737750709007205400,4.934205322265625,-0.09104761481285095,0.2013549506664276,-1.4589073657989502
1737750709017273300,4.9442734375,-0.15132960677146912,0.3200080990791321,-1.5383347272872925
1737750709027341300,4.95434130859375,-0.24876613914966583,0.4208521544933319,-1.624806523323059
1737750709037409500,4.964409423828125,-0.365439772605896,0.47756311297416687,-1.712523341178894
1737750709047478500,4.974478515625,-0.4762064814567566,0.48527002334594727,-1.8085249662399292
1737750709057546500,4.98454638671875,-0.5519025921821594,0.44854503870010376,-1.9028522968292236
1737750709067614500,4.994614501953125,-0.5836085677146912,0.35233408212661743,-1.9972325563430786
1737750709077682400,5.004682373046875,-0.5979670286178589,0.2195797562599182,-2.1041476726531982
1737750709087750400,5.01475048828125,-0.6519181132316589,0.03304583579301834,-2.1811678409576416
1737750709097818400,5.024818359375,-0.7531121373176575,-0.20155708491802216,-2.217252492904663
1737750709107886600,5.034886474609375,-0.8812634348869324,-0.39700329303741455,-2.230620861053467
1737750709117954600,5.04495458984375,-1.0349286794662476,-0.535731852054596,-2.2624030113220215
1737750709128022500,5.0550224609375,-1.1929336786270142,-0.5765975117683411,-2.2876789569854736
1737750709138090500,5.065090576171875,-1.323529839515686,-0.4887390732765198,-2.255009889602661
1737750709148158500,5.075158447265625,-1.3908339738845825,-0.2745111882686615,-2.1513984203338623
1737750709158226400,5.085226318359375,-1.3411519527435303,0.074605792760849,-1.9892380237579346
1737750709168294400,5.09529443359375,-1.1732287406921387,0.5182183980941772,-1.8415061235427856
1737750709178362400,5.1053623046875,-0.9247472882270813,0.9660254716873169,-1.7108620405197144
1737750709188430600,5.1154306640625,-0.6725800037384033,1.322419285774231,-1.577445387840271
1737750709198498600,5.12549853515625,-0.49327948689460754,1.5644111633300781,-1.4741156101226807
1737750709208566500,5.13556640625,-0.39785975217819214,1.6480107307434082,-1.3742132186889648
1737750709218634200,5.14563427734375,-0.36702674627304077,1.5772489309310913,-1.281319260597229
1737750709228702500,5.155702392578125,-0.3719288110733032,1.4622267484664917,-1.2074843645095825
1737750709238770400,5.1657705078125,-0.3630453050136566,1.3951451778411865,-1.1406747102737427
1737750709248838400,5.17583837890625,-0.3063218593597412,1.370913028717041,-1.070013403892517
1737750709258906400,5.18590625,-0.21281640231609344,1.3580076694488525,-1.0046508312225342
1737750709268974600,5.195974609375,-0.11988965421915054,1.3464492559432983,-0.9454626441001892
1737750709279042600,5.20604248046875,-0.08389303833246231,1.3140755891799927,-0.8676804900169373
1737750709289110500,5.216110595703125,-0.11144370585680008,1.2671805620193481,-0.77497798204422
1737750709299178200,5.22617822265625,-0.17780354619026184,1.2270817756652832,-0.6367927193641663
1737750709309246500,5.23624658203125,-0.22630077600479126,1.2475348711013794,-0.480991929769516
1737750709319314400,5.246314453125,-0.22798895835876465,1.2903937101364136,-0.3449738919734955
1737750709329382400,5.25638232421875,-0.19187915325164795,1.339150071144104,-0.2318848967552185
1737750709339450400,5.266450439453125,-0.1341591328382492,1.371882677078247,-0.12291979789733887
1737750709349518600,5.2765185546875,-0.09707754850387573,1.3774793148040771,-0.008492021821439266
1737750709359586600,5.286586669921875,-0.0735091045498848,1.3505643606185913,0.11186821013689041
1737750709369654500,5.296654541015625,-0.06878598779439926,1.2647045850753784,0.23709537088871002
1737750709379722200,5.30672216796875,-0.06286471337080002,1.144682765007019,0.33139416575431824
1737750709389790500,5.31679052734375,-0.04899417236447334,1.019588589668274,0.4000203609466553
1737750709399858400,5.3268583984375,-0.0018735338235273957,0.8968948721885681,0.46694162487983704
1737750709409927400,5.336927490234375,0.065376877784729,0.7814268469810486,0.5144292712211609
1737750709419995600,5.34699560546875,0.12917102873325348,0.6620224118232727,0.5709343552589417
1737750709430063400,5.3570634765625,0.19432847201824188,0.546934962272644,0.626437783241272
1737750709440131300,5.36713134765625,0.2560855746269226,0.4340750277042389,0.6869983673095703
1737750709450199300,5.37719921875,0.31818464398384094,0.3127562999725342,0.7367017269134521
1737750709460267500,5.387267578125,0.369366317987442,0.19377000629901886,0.7861638069152832
1737750709470335500,5.39733544921875,0.3947550356388092,0.08865689486265182,0.8474210500717163
1737750709480403500,5.407403564453125,0.4203088581562042,-0.029889455065131187,0.9083115458488464
1737750709490471400,5.417471435546875,0.4457617700099945,-0.1418924182653427,0.9675740599632263
1737750709500539600,5.42753955078125,0.4607734680175781,-0.2330702692270279,1.0053776502609253
1737750709510607400,5.437607421875,0.46238601207733154,-0.3231932520866394,1.02707040309906
1737750709520675300,5.44767529296875,0.46196603775024414,-0.412854939699173,1.0340229272842407
1737750709530743300,5.457743408203125,0.4620925486087799,-0.5020503401756287,1.0305280685424805
1737750709540811500,5.4678115234375,0.4668199121952057,-0.5884941220283508,1.0147676467895508
1737750709550879500,5.47787939453125,0.47937485575675964,-0.6671756505966187,0.9868223667144775
1737750709560947500,5.487947509765625,0.4909406900405884,-0.7439252734184265,0.9631766676902771
1737750709571015400,5.498015380859375,0.508676290512085,-0.7997097373008728,0.9515149593353271
1737750709581083600,5.508083740234375,0.522712230682373,-0.8356032967567444,0.9428777694702148
1737750709591151400,5.5181513671875,0.5219026207923889,-0.8601869344711304,0.9312243461608887
1737750709601219300,5.52821923828125,0.5176545977592468,-0.8767815828323364,0.9214593172073364
1737750709611287600,5.53828759765625,0.5192357301712036,-0.8958176374435425,0.9144863486289978
1737750709621355500,5.54835546875,0.5323629975318909,-0.896012008190155,0.9163724184036255
1737750709631423500,5.558423583984375,0.5594907402992249,-0.8689172863960266,0.9246481657028198
1737750709641491500,5.568491455078125,0.6103594899177551,-0.8221604228019714,0.9282788634300232
1737750709651559000,5.578558837890625,0.6740497946739197,-0.7602643370628357,0.9294354915618896
1737750709661627000,5.588626953125,0.7427782416343689,-0.6801111698150635,0.9212294816970825
1737750709671694800,5.59869482421875,0.811880350112915,-0.5828455686569214,0.9146818518638611
1737750709681762800,5.6087626953125,0.8827164769172668,-0.4715403616428375,0.9095022678375244
1737750709691830800,5.618830810546875,0.9583257436752319,-0.34772440791130066,0.9176675081253052
1737750709701898800,5.628898681640625,1.0433762073516846,-0.21374903619289398,0.9278144240379333
1737750709711966700,5.638966796875,1.1499348878860474,-0.08068898320198059,0.9350994825363159
1737750709722035000,5.649034912109375,1.2714945077896118,0.05865026265382767,0.9432900547981262
1737750709732103000,5.65910302734375,1.3913791179656982,0.18438342213630676,0.932401180267334
1737750709742171000,5.6691708984375,1.4974749088287354,0.2714027464389801,0.9046201705932617
1737750709752238800,5.67923876953125,1.580268383026123,0.33276116847991943,0.8660573363304138
1737750709762306800,5.689306884765625,1.6416581869125366,0.3841543197631836,0.8253756761550903
1737750709772374800,5.699374755859375,1.6972730159759521,0.43637996912002563,0.7917125225067139
1737750709782443800,5.70944384765625,1.755947470664978,0.5199757814407349,0.7590848207473755
1737750709792512000,5.719511962890625,1.827064037322998,0.6581965088844299,0.7314321398735046
1737750709802580000,5.729580078125,1.915811538696289,0.8442915678024292,0.7068303823471069
1737750709812648000,5.73964794921875,2.0218796730041504,1.08319890499115,0.6869325637817383
1737750709822715600,5.749715576171875,2.114314556121826,1.389603614807129,0.655049204826355
1737750709832784000,5.759783935546875,2.162663459777832,1.7464206218719482,0.613436222076416
1737750709842851800,5.769851806640625,2.1691863536834717,2.1571567058563232,0.568297266960144
1737750709852919800,5.779919921875,2.1233880519866943,2.6187126636505127,0.5257407426834106
1737750709862987800,5.78998779296875,2.069422721862793,3.1473472118377686,0.5144444108009338
1737750709873056000,5.800055908203125,2.0252058506011963,3.698723316192627,0.5502010583877563
1737750709883124000,5.8101240234375,1.947357177734375,4.164394855499268,0.6107072830200195
1737750709893192000,5.82019189453125,1.8043949604034424,4.451682090759277,0.6557557582855225
1737750709903259600,5.830259765625,1.5821189880371094,4.468191146850586,0.6947569251060486
1737750709913327900,5.840327880859375,1.2972105741500854,4.12689208984375,0.7078666090965271
1737750709923395800,5.850395751953125,1.0040644407272339,3.38208270072937,0.6396105885505676
1737750709933463800,5.8604638671875,0.808660089969635,2.3329968452453613,0.47749680280685425
1737750709943531800,5.87053173828125,0.7252064347267151,1.1760088205337524,0.27917197346687317
1737750709953600000,5.88060009765625,0.68724125623703,0.10673283785581589,0.10779570788145065
1737750709963668000,5.89066796875,0.67469322681427,-0.7501016855239868,-0.007396130822598934
1737750709973736000,5.90073583984375,0.7048817276954651,-1.3035552501678467,-0.06581123918294907
1737750709983803600,5.9108037109375,0.7435484528541565,-1.5331107378005981,-0.07510647177696228
1737750709993872000,5.920871826171875,0.7577508091926575,-1.4718689918518066,-0.055814262479543686
1737750710003939800,5.93093994140625,0.7561702132225037,-1.184201717376709,-0.017133180052042007
1737750710014007800,5.9410078125,0.7568778395652771,-0.7491685152053833,0.03988989070057869
1737750710024075800,5.95107568359375,0.7633969783782959,-0.24130423367023468,0.09796331822872162
1737750710034144000,5.96114404296875,0.7956201434135437,0.2623876929283142,0.15101215243339539
1737750710044212000,5.9712119140625,0.8480951189994812,0.6958578824996948,0.18438981473445892
1737750710054279700,5.98127978515625,0.9180629849433899,1.0073171854019165,0.20045879483222961
1737750710064347600,5.99134765625,0.9998763799667358,1.1838473081588745,0.21105071902275085
1737750710074415900,6.001415771484375,1.1033625602722168,1.2357823848724365,0.20242686569690704
1737750710084483800,6.01148388671875,1.2338401079177856,1.1907845735549927,0.19459505379199982
1737750710094551800,6.0215517578125,1.3812410831451416,1.097737193107605,0.1791423261165619
1737750710104619800,6.031619873046875,1.5374146699905396,1.0014077425003052,0.15967488288879395
1737750710114688000,6.04168798828125,1.6733969449996948,0.9167644381523132,0.14745257794857025
1737750710124756000,6.051755859375,1.76774263381958,0.8496485352516174,0.14671461284160614
1737750710134823700,6.06182373046875,1.837986707687378,0.8306620121002197,0.17195391654968262
1737750710144891600,6.0718916015625,1.884661078453064,0.8757464289665222,0.21362493932247162
1737750710154960000,6.0819599609375,1.9118492603302002,0.9789119362831116,0.2633346915245056
1737750710165027800,6.09202783203125,1.9457582235336304,1.1190458536148071,0.3324495851993561
1737750710175095800,6.102095703125,1.9686102867126465,1.283289909362793,0.4121454954147339
1737750710185163800,6.112163818359375,1.9679477214813232,1.45968496799469,0.46218255162239075
1737750710195232000,6.12223193359375,1.95177161693573,1.5925625562667847,0.5043060183525085
1737750710205300000,6.132300048828125,1.91843843460083,1.6941547393798828,0.5216671824455261
1737750710215367700,6.14236767578125,1.868998408317566,1.7933484315872192,0.5192916393280029
1737750710225435600,6.152435546875,1.8214898109436035,1.8808494806289673,0.4854431450366974
1737750710235503900,6.16250390625,1.7692651748657227,1.930909276008606,0.4256975054740906
1737750710245571800,6.17257177734375,1.7067410945892334,1.9338935613632202,0.35698607563972473
1737750710255639800,6.182639892578125,1.6399644613265991,1.8852202892303467,0.2887897193431854
1737750710265707800,6.192707763671875,1.557865858078003,1.8146049976348877,0.21348458528518677
1737750710275776000,6.20277587890625,1.479400396347046,1.7354683876037598,0.10017161071300507
1737750710285844000,6.212843994140625,1.4288139343261719,1.6636799573898315,-0.006652842741459608
1737750710295911700,6.22291162109375,1.4239051342010498,1.6148964166641235,-0.09773561358451843
1737750710305980000,6.23297998046875,1.4514161348342896,1.5974979400634766,-0.17691005766391754
1737750710316049000,6.243048828125,1.5023407936096191,1.5869728326797485,-0.24026693403720856
1737750710326116900,6.253116943359375,1.5615549087524414,1.5834311246871948,-0.3104438781738281
1737750710336184800,6.263184814453125,1.6121211051940918,1.5793427228927612,-0.3840608596801758
1737750710346252800,6.273252685546875,1.641607403755188,1.5808204412460327,-0.46336978673934937
1737750710356320800,6.28332080078125,1.6493496894836426,1.5749309062957764,-0.5126172304153442
1737750710366388700,6.293388671875,1.6504203081130981,1.5585705041885376,-0.5311365723609924
1737750710376456700,6.303456787109375,1.6502496004104614,1.5509320497512817,-0.5283764600753784
1737750710386525000,6.31352490234375,1.6568348407745361,1.5552873611450195,-0.5121330618858337
1737750710396593000,6.323593017578125,1.6754052639007568,1.538132667541504,-0.47327619791030884
1737750710406660900,6.333660888671875,1.6984450817108154,1.5066229104995728,-0.4305729568004608
1737750710416728800,6.343728759765625,1.6946394443511963,1.4521349668502808,-0.3966895639896393
1737750710426796800,6.353796875,1.6459847688674927,1.3513768911361694,-0.3641244173049927
1737750710436864800,6.36386474609375,1.5376226902008057,1.1976238489151,-0.32803139090538025
1737750710446932700,6.3739326171875,1.3661366701126099,0.9873227477073669,-0.2779724895954132
1737750710457000700,6.384000732421875,1.153185248374939,0.7526785731315613,-0.218157097697258
1737750710467069000,6.39406884765625,0.9303297996520996,0.5304151177406311,-0.1548265963792801
1737750710477137000,6.404136962890625,0.7383313179016113,0.3614426255226135,-0.07291841506958008
1737750710487204900,6.414204833984375,0.6219956278800964,0.2719958424568176,0.04526707902550697
1737750710497273000,6.424273193359375,0.5783339142799377,0.2586731016635895,0.18598158657550812
1737750710507340800,6.4343408203125,0.6018219590187073,0.3150210678577423,0.3152463734149933
1737750710517408800,6.44440869140625,0.656161904335022,0.431568443775177,0.40627720952033997
1737750710527476700,6.454476806640625,0.6965764164924622,0.5922396183013916,0.460891455411911
1737750710537545000,6.464544921875,0.6728249788284302,0.7650598883628845,0.48998889327049255
1737750710547613000,6.474613037109375,0.5962229371070862,0.9257158637046814,0.4987144470214844
1737750710557681000,6.484680908203125,0.48678216338157654,1.0956529378890991,0.5028687119483948
1737750710567748900,6.494748779296875,0.38808247447013855,1.2686505317687988,0.5007739067077637
1737750710577817000,6.504817138671875,0.35301026701927185,1.4122569561004639,0.5048834085464478
1737750710587884800,6.514884765625,0.39465489983558655,1.5033514499664307,0.5105812549591064
1737750710597952800,6.524952880859375,0.499708890914917,1.5432353019714355,0.4957088232040405
1737750710608020700,6.535020751953125,0.6318621039390564,1.5070713758468628,0.46176496148109436
1737750710618089000,6.5450888671875,0.7627953886985779,1.3949254751205444,0.4328523576259613
1737750710628157000,6.555156982421875,0.873076856136322,1.2503160238265991,0.39249932765960693
1737750710638225000,6.565224853515625,0.9517594575881958,1.075106143951416,0.35227468609809875
1737750710648292900,6.57529296875,0.9977386593818665,0.8631491661071777,0.32537996768951416
1737750710658360600,6.585360595703125,1.019214153289795,0.6479513645172119,0.30579718947410583
1737750710668428500,6.595428466796875,1.025131344795227,0.4453638792037964,0.2823616564273834
1737750710678496500,6.60549658203125,1.011061429977417,0.2528138756752014,0.24936668574810028
1737750710688564500,6.615564453125,0.9672084450721741,0.06214699521660805,0.22664380073547363
1737750710698632400,6.625632568359375,0.8831148743629456,-0.11472924798727036,0.20819155871868134
1737750710708700400,6.635700439453125,0.7742408514022827,-0.24048957228660583,0.18176500499248505
1737750710718768600,6.6457685546875,0.65513014793396,-0.3209415376186371,0.1434466391801834
1737750710728836600,6.655836669921875,0.5445964932441711,-0.3572329580783844,0.10338976979255676
1737750710738904600,6.665904541015625,0.45087742805480957,-0.35564011335372925,0.053457364439964294
1737750710748972300,6.67597216796875,0.36948829889297485,-0.33449622988700867,0.004222175572067499
1737750710759040500,6.68604052734375,0.31151846051216125,-0.31286442279815674,-0.050283677875995636
1737750710769108500,6.6961083984375,0.26623061299324036,-0.3033990263938904,-0.10754164308309555
1737750710779176400,6.706176513671875,0.22951175272464752,-0.32637038826942444,-0.15520715713500977
1737750710789244400,6.716244384765625,0.18773820996284485,-0.37962669134140015,-0.2005394846200943
1737750710799312600,6.726312744140625,0.1413446068763733,-0.4457963705062866,-0.24138519167900085
1737750710809380600,6.736380615234375,0.096674345433712,-0.5134119391441345,-0.28029850125312805
1737750710819448600,6.746448486328125,0.06494544446468353,-0.5713532567024231,-0.31631189584732056
1737750710829516300,6.756516357421875,0.04916461557149887,-0.6098886728286743,-0.34476351737976074
1737750710839584500,6.76658447265625,0.051835767924785614,-0.620756983757019,-0.36774685978889465
1737750710849652500,6.776652587890625,0.06871328502893448,-0.6008450984954834,-0.3766665756702423
1737750710859720400,6.786720458984375,0.09309852123260498,-0.5593418478965759,-0.364586740732193
1737750710869788400,6.796788330078125,0.1192086786031723,-0.5103053450584412,-0.346722811460495
1737750710879857700,6.806857666015625,0.13898611068725586,-0.4607042372226715,-0.334433376789093
1737750710889925400,6.81692529296875,0.13821911811828613,-0.40809401869773865,-0.3257541358470917
1737750710899993300,6.826993408203125,0.12455764412879944,-0.3555162847042084,-0.3202664256095886
1737750710910061600,6.8370615234375,0.09947705268859863,-0.30799245834350586,-0.31737369298934937
1737750710920129500,6.847129638671875,0.06509458273649216,-0.2818540632724762,-0.309106707572937
1737750710930197500,6.857197509765625,0.01895664632320404,-0.2809610962867737,-0.2985864281654358
1737750710940265500,6.867265380859375,-0.02725612185895443,-0.29771023988723755,-0.29317355155944824
1737750710950333700,6.877333740234375,-0.07071971148252487,-0.3318439722061157,-0.2875191271305084
1737750710960401400,6.8874013671875,-0.11642221361398697,-0.3876068592071533,-0.2882898449897766
1737750710970469400,6.897469482421875,-0.17292144894599915,-0.45164814591407776,-0.2925008535385132
1737750710980537300,6.907537353515625,-0.23055997490882874,-0.5175192952156067,-0.29624390602111816
1737750710990605600,6.91760546875,-0.2846812605857849,-0.5713199377059937,-0.2800731956958771
1737750711000673500,6.927673583984375,-0.3192216753959656,-0.6166262030601501,-0.2620835304260254
1737750711010741500,6.937741455078125,-0.3305142819881439,-0.6466189622879028,-0.24320971965789795
1737750711020809500,6.9478095703125,-0.32837975025177,-0.6777771711349487,-0.22626589238643646
1737750711030877700,6.957877685546875,-0.31971701979637146,-0.7123116850852966,-0.20600882172584534
1737750711040945400,6.9679453125,-0.3088952600955963,-0.7473767399787903,-0.18852250277996063
1737750711051013400,6.978013427734375,-0.29812437295913696,-0.7835773825645447,-0.17787200212478638
1737750711061081300,6.988081298828125,-0.30273962020874023,-0.8195499777793884,-0.17437845468521118
1737750711071149600,6.998149658203125,-0.3248233497142792,-0.8734848499298096,-0.17178747057914734
1737750711081217500,7.008217529296875,-0.34669750928878784,-0.9448623657226562,-0.18176180124282837
1737750711091285500,7.018285400390625,-0.38416925072669983,-1.0061196088790894,-0.193517804145813
1737750711101353500,7.028353515625,-0.4319458305835724,-1.0631256103515625,-0.2043403536081314
1737750711111421700,7.038421630859375,-0.4732123017311096,-1.1220736503601074,-0.2154260277748108
1737750711121489400,7.048489501953125,-0.5053614377975464,-1.181126594543457,-0.23356615006923676
1737750711131557400,7.058557373046875,-0.5323467254638672,-1.2202860116958618,-0.2555406987667084
1737750711141625300,7.068625244140625,-0.5579295754432678,-1.2102082967758179,-0.2776563763618469
1737750711151693600,7.078693603515625,-0.5821113586425781,-1.1671407222747803,-0.31499841809272766
1737750711161761500,7.088761474609375,-0.5967265367507935,-1.0948636531829834,-0.3507004976272583
1737750711171829500,7.09882958984375,-0.6006032824516296,-0.9901984333992004,-0.3718031048774719
1737750711181897500,7.1088974609375,-0.5900686383247375,-0.8521034121513367,-0.3722175061702728
1737750711191965700,7.118965576171875,-0.5663118958473206,-0.6878625750541687,-0.3570878207683563
1737750711202033400,7.129033447265625,-0.5272952318191528,-0.506446123123169,-0.33560729026794434
1737750711212101400,7.139101318359375,-0.47145888209342957,-0.31938251852989197,-0.30761826038360596
1737750711222169300,7.14916943359375,-0.4018329083919525,-0.13204431533813477,-0.2782262861728668
1737750711232237600,7.159237548828125,-0.33987900614738464,0.05278651416301727,-0.24167974293231964
1737750711242305500,7.169305419921875,-0.28352224826812744,0.20507033169269562,-0.18877418339252472
1737750711252373500,7.17937353515625,-0.2354748398065567,0.3223990797996521,-0.1248745545744896
1737750711262441700,7.189441650390625,-0.1878892034292221,0.40564629435539246,-0.06362984329462051
1737750711272509700,7.199509765625,-0.13940343260765076,0.4652979075908661,-0.0006050702068023384
1737750711282577400,7.209577392578125,-0.09216348081827164,0.49425312876701355,0.05060086026787758
1737750711292645400,7.219645263671875,-0.07064114511013031,0.4790949523448944,0.08850909024477005
1737750711302713600,7.229713623046875,-0.08545178174972534,0.43252238631248474,0.11534363776445389
1737750711312781600,7.239781494140625,-0.1359378546476364,0.37611663341522217,0.12738299369812012
1737750711322849500,7.249849609375,-0.22289246320724487,0.3099900782108307,0.10589154809713364
1737750711332917500,7.25991748046875,-0.3384416997432709,0.2351302206516266,0.06308229267597198
1737750711342985700,7.26998583984375,-0.4627053141593933,0.1610373556613922,-0.006078132428228855
1737750711353053700,7.2800537109375,-0.5776641368865967,0.09336989372968674,-0.08301099389791489
1737750711363121400,7.290121337890625,-0.6595238447189331,0.01474512368440628,-0.13735786080360413
1737750711373189400,7.300189453125,-0.7030108571052551,-0.07004459947347641,-0.16990327835083008
1737750711383257600,7.310257568359375,-0.7247606515884399,-0.17138053476810455,-0.18285982310771942
1737750711393325600,7.32032568359375,-0.7412117719650269,-0.3178592026233673,-0.1941889226436615
1737750711403393500,7.3303935546875,-0.7612190246582031,-0.4814699590206146,-0.20029793679714203
1737750711413461500,7.34046142578125,-0.7945964336395264,-0.6547157764434814,-0.21178682148456573
1737750711423529700,7.35052978515625,-0.858798086643219,-0.8393687009811401,-0.22626908123493195
1737750711433597400,7.360597412109375,-0.9432184100151062,-1.0268619060516357,-0.2334984987974167
1737750711443665400,7.37066552734375,-1.0358197689056396,-1.1989401578903198,-0.2401079386472702
1737750711453734400,7.380734375,-1.1343319416046143,-1.3463189601898193,-0.25728639960289
1737750711463802600,7.390802734375,-1.2130906581878662,-1.4619559049606323,-0.2836354374885559
1737750711473870600,7.40087060546875,-1.2682907581329346,-1.545242428779602,-0.3218027949333191
1737750711483938600,7.4109384765625,-1.289089322090149,-1.5903942584991455,-0.36878150701522827
1737750711494006500,7.421006591796875,-1.2810745239257812,-1.611488938331604,-0.4251672625541687
1737750711504074500,7.431074462890625,-1.2456281185150146,-1.615612506866455,-0.49193137884140015
1737750711514142500,7.441142578125,-1.1946370601654053,-1.6139525175094604,-0.5721253156661987
1737750711524210400,7.45121044921875,-1.1396987438201904,-1.6230674982070923,-0.655947208404541
1737750711534278700,7.461278564453125,-1.0789048671722412,-1.6490410566329956,-0.7208460569381714
1737750711544346600,7.4713466796875,-1.0189728736877441,-1.690116047859192,-0.758599579334259
1737750711554414600,7.48141455078125,-0.9567294120788574,-1.740301489830017,-0.7652004957199097
1737750711564482600,7.491482666015625,-0.8830237984657288,-1.7833693027496338,-0.7560890316963196
1737750711574550500,7.501550537109375,-0.7917343378067017,-1.800700306892395,-0.7383784651756287
1737750711584618500,7.511618408203125,-0.6972552537918091,-1.7968789339065552,-0.7413949966430664
1737750711594686500,7.5216865234375,-0.6279648542404175,-1.7890408039093018,-0.7708013653755188
1737750711604754400,7.53175439453125,-0.6064630150794983,-1.7932219505310059,-0.8006625771522522
1737750711614822700,7.54182275390625,-0.6459920406341553,-1.8235808610916138,-0.8236664533615112
1737750711624890600,7.551890625,-0.7305218577384949,-1.8732699155807495,-0.8210429549217224
1737750711634958600,7.56195849609375,-0.8363587856292725,-1.9297595024108887,-0.8022139072418213
1737750711645026600,7.572026611328125,-0.9209490418434143,-1.9855525493621826,-0.7734038233757019
1737750711655094300,7.58209423828125,-0.9642419219017029,-2.0545036792755127,-0.7453359365463257
1737750711665162200,7.592162353515625,-0.9835171103477478,-2.138982057571411,-0.7188990116119385
1737750711675230200,7.602230224609375,-1.0023573637008667,-2.251596450805664,-0.7069392800331116
1737750711685298200,7.612298095703125,-1.0113868713378906,-2.402683734893799,-0.7132861614227295
1737750711695366100,7.6223662109375,-1.0082656145095825,-2.5667307376861572,-0.7305777668952942
1737750711705434400,7.632434326171875,-0.981259286403656,-2.7004668712615967,-0.7601894736289978
1737750711715502300,7.64250244140625,-0.9238473773002625,-2.786062240600586,-0.7900275588035583
1737750711725570300,7.6525703125,-0.826225757598877,-2.821402072906494,-0.8193068504333496
1737750711735638000,7.662637939453125,-0.6807870864868164,-2.818328857421875,-0.809563934803009
1737750711745706200,7.672706298828125,-0.5045555830001831,-2.785989284515381,-0.7580863833427429
1737750711755774200,7.682774169921875,-0.33927688002586365,-2.715277910232544,-0.7131407260894775
1737750711765842200,7.69284228515625,-0.23944401741027832,-2.616114616394043,-0.7011562585830688
1737750711775910100,7.70291015625,-0.23969727754592896,-2.4973838329315186,-0.7108573317527771
1737750711785978400,7.712978271484375,-0.3509356677532196,-2.3654675483703613,-0.7219544649124146
1737750711796046300,7.72304638671875,-0.5527853965759277,-2.2188162803649902,-0.7168776988983154
1737750711806114300,7.7331142578125,-0.8088992238044739,-2.020555019378662,-0.6966893076896667
1737750711816182000,7.74318212890625,-1.0699920654296875,-1.765106439590454,-0.6662720441818237
1737750711826250200,7.753250244140625,-1.2816067934036255,-1.4696625471115112,-0.6249594688415527
1737750711836318200,7.763318115234375,-1.3988168239593506,-1.161781668663025,-0.5717276930809021
1737750711846386200,7.77338623046875,-1.4034349918365479,-0.857089102268219,-0.49188026785850525
1737750711856454100,7.7834541015625,-1.312767744064331,-0.5514125823974609,-0.39958229660987854
1737750711866522400,7.7935224609375,-1.1738455295562744,-0.2751343548297882,-0.3107442855834961
1737750711876590300,7.80359033203125,-1.0076820850372314,-0.038788940757513046,-0.24005015194416046
1737750711886658300,7.813658203125,-0.8505023121833801,0.1524534523487091,-0.1844923496246338
1737750711896726000,7.82372607421875,-0.7047690749168396,0.3106532096862793,-0.13059289753437042
1737750711906794200,7.833794189453125,-0.5771986246109009,0.44374069571495056,-0.0823792964220047
1737750711916862200,7.8438623046875,-0.4644579589366913,0.5388240814208984,-0.01691560074687004
1737750711926930200,7.85393017578125,-0.368131160736084,0.5907596945762634,0.08367252349853516
1737750711936998100,7.863998046875,-0.2758960425853729,0.6037300825119019,0.21588808298110962
1737750711947066400,7.87406640625,-0.1794043779373169,0.6060667634010315,0.34228357672691345
1737750711957134300,7.88413427734375,-0.08707844465970993,0.5606992840766907,0.4796566069126129
1737750711967202300,7.894202392578125,0.003653058083727956,0.47736284136772156,0.5949035882949829
1737750711977270000,7.90427001953125,0.07330537587404251,0.37106993794441223,0.6763571500778198
1737750711987338200,7.914338134765625,0.10351654142141342,0.24080462753772736,0.7468912601470947
1737750711997406200,7.92440625,0.10782526433467865,0.07998058944940567,0.8201659917831421
1737750712007474200,7.93447412109375,0.11069988459348679,-0.08153640478849411,0.8751488327980042
1737750712017542100,7.944542236328125,0.1206049770116806,-0.2285705953836441,0.9003183245658875
1737750712027610400,7.9546103515625,0.14038774371147156,-0.3515242040157318,0.9315891861915588
1737750712037679000,7.96467919921875,0.15609079599380493,-0.4206124544143677,1.0163896083831787
1737750712047747000,7.9747470703125,0.14923156797885895,-0.42821258306503296,1.12711763381958
1737750712057815300,7.984815185546875,0.1290956735610962,-0.3701391816139221,1.2295985221862793
1737750712067883300,7.99488330078125,0.12570838630199432,-0.2658497989177704,1.3025869131088257
1737750712077951200,8.004951171875,0.1450227051973343,-0.12487482279539108,1.3640609979629517
1737750712088019200,8.015019287109375,0.18680770695209503,0.06748423725366592,1.4231336116790771
1737750712098087400,8.02508740234375,0.24586781859397888,0.30822253227233887,1.4767177104949951
1737750712108155100,8.035155029296876,0.31888556480407715,0.5535028576850891,1.4958264827728271
1737750712118223000,8.04522314453125,0.3813883662223816,0.784612774848938,1.4961007833480835
1737750712128291000,8.055291015625,0.437391459941864,0.9818771481513977,1.5151197910308838
1737750712138359300,8.065359375,0.48585087060928345,1.1489982604980469,1.5505224466323853
1737750712148427300,8.07542724609375,0.530570924282074,1.2641338109970093,1.562039852142334
1737750712158495200,8.0854951171875,0.599906325340271,1.324135422706604,1.5162606239318848
1737750712168563200,8.095563232421876,0.6786386966705322,1.3437283039093018,1.4143656492233276
1737750712178631400,8.10563134765625,0.7191722393035889,1.2934435606002808,1.321073055267334
1737750712188699100,8.11569921875,0.6916919350624084,1.185680627822876,1.2368532419204712
1737750712198767000,8.12576708984375,0.6078643798828125,1.0301748514175415,1.1751536130905151
1737750712208835000,8.1358349609375,0.4884530305862427,0.8594545125961304,1.1300798654556274
1737750712218903300,8.1459033203125,0.3633268177509308,0.69621741771698,1.0809648036956787
1737750712228971300,8.15597119140625,0.2514367699623108,0.5406837463378906,1.0564650297164917
1737750712239039200,8.166039306640625,0.1650635153055191,0.4045810401439667,1.0535778999328613
1737750712249107200,8.176107177734375,0.1093728318810463,0.33613353967666626,1.0480984449386597
1737750712259175400,8.186175537109374,0.0920468345284462,0.3339606523513794,1.028774619102478
1737750712269243100,8.1962431640625,0.10996724665164948,0.38068687915802,1.0281492471694946
1737750712279311000,8.20631103515625,0.14009904861450195,0.466008722782135,1.0442739725112915
1737750712289379000,8.216379150390624,0.17070622742176056,0.5520455837249756,1.0871574878692627
1737750712299447300,8.226447265625,0.19448240101337433,0.6618170738220215,1.1405680179595947
1737750712309515300,8.236515380859375,0.20720218122005463,0.7787793874740601,1.152884602546692
1737750712319583200,8.246583251953124,0.22634552419185638,0.90244060754776,1.1870734691619873
1737750712329651200,8.256651123046876,0.2581327557563782,1.0333136320114136,1.1969410181045532
1737750712339719200,8.26671923828125,0.2925786077976227,1.1222057342529297,1.0990774631500244
1737750712349787100,8.276787109375,0.3217484652996063,1.1310330629348755,0.9499210715293884
1737750712359855000,8.286855224609376,0.30433326959609985,1.0552051067352295,0.7581148743629456
1737750712369923000,8.296923095703125,0.2175922393798828,0.8707535266876221,0.5907647609710693
1737750712379991300,8.3069912109375,0.03850238397717476,0.6001880764961243,0.3237692713737488
1737750712390059300,8.317059326171876,-0.20170195400714874,0.24942927062511444,0.04909271001815796
1737750712400127200,8.327127197265625,-0.4542364776134491,-0.14653778076171875,-0.1842135190963745
1737750712410195200,8.3371953125,-0.6493697762489319,-0.5741591453552246,-0.46180811524391174
1737750712420263200,8.34726318359375,-0.7160212397575378,-1.0292127132415771,-0.6706031560897827
1737750712430331100,8.3573310546875,-0.6516813635826111,-1.4846651554107666,-0.804850697517395
1737750712440399000,8.367399169921875,-0.4959375858306885,-1.9195194244384766,-0.9042542576789856
1737750712450467000,8.377467041015626,-0.2775368094444275,-2.2271323204040527,-0.9735656380653381
1737750712460535300,8.387535400390625,-0.054540205746889114,-2.320134162902832,-0.9611401557922363
1737750712470603300,8.397603271484375,0.10134340077638626,-2.1768391132354736,-0.9930568337440491
1737750712480671200,8.407671142578126,0.11142293363809586,-1.8027105331420898,-0.9114410281181335
1737750712490740200,8.417740234375,-0.10057694464921951,-1.3274712562561035,-0.7937653064727783
1737750712500808200,8.42780810546875,-0.40708255767822266,-0.9510337114334106,-0.6754985451698303
1737750712510876200,8.437876220703124,-0.5946809649467468,-0.7194396257400513,-0.6951755881309509
1737750712520944000,8.447944091796876,-0.5973036289215088,-0.4935511350631714,-0.7073813676834106
1737750712531012400,8.458012451171875,-0.5146771669387817,-0.170170396566391,-0.6774357557296753
1737750712541080300,8.468080322265624,-0.4394599199295044,0.15454137325286865,-0.5925893187522888
1737750712551148300,8.478148193359376,-0.4217973053455353,0.38513249158859253,-0.5383068919181824
1737750712561216000,8.488216064453125,-0.4429324269294739,0.498925119638443,-0.5299421548843384
1737750712571284200,8.4982841796875,-0.4629356861114502,0.5343030691146851,-0.5573679208755493
1737750712581352200,8.508352294921876,-0.4827099144458771,0.5303035378456116,-0.5675742030143738
1737750712591420200,8.518420166015625,-0.489621102809906,0.4802558124065399,-0.57913738489151
1737750712601488100,8.528488037109375,-0.4815615713596344,0.3821297883987427,-0.6017428636550903
1737750712611556400,8.538556396484376,-0.46585264801979065,0.2429756373167038,-0.6118351817131042
1737750712621624300,8.548624267578125,-0.4632076025009155,0.07664657384157181,-0.6193050742149353
1737750712631692300,8.5586923828125,-0.45268625020980835,-0.10115378350019455,-0.6254284381866455
1737750712641760000,8.568760009765626,-0.4073120951652527,-0.2913045585155487,-0.6316445469856262
1737750712651829500,8.57882958984375,-0.3266279101371765,-0.4625506103038788,-0.6233221888542175
1737750712661897500,8.5888974609375,-0.23462475836277008,-0.6111012101173401,-0.6199743151664734
1737750712671965700,8.598965576171874,-0.1412505954504013,-0.7407292127609253,-0.6197530031204224
1737750712682033700,8.60903369140625,-0.050511643290519714,-0.8778449892997742,-0.6173116564750671
1737750712692101400,8.619101318359375,0.01432008296251297,-1.032678246498108,-0.6396569609642029
1737750712702169300,8.62916943359375,0.05073907598853111,-1.2233211994171143,-0.6719751954078674
1737750712712237600,8.639237548828126,0.0465155690908432,-1.4711179733276367,-0.7233193516731262
1737750712722305500,8.649305419921875,0.0032658344134688377,-1.7546521425247192,-0.7992950677871704
1737750712732373500,8.65937353515625,-0.06435715407133102,-2.028658151626587,-0.8780854940414429
1737750712742441500,8.66944140625,-0.1183205172419548,-2.240915298461914,-0.9809280037879944
1737750712752509700,8.679509765625,-0.14704057574272156,-2.434150457382202,-1.0793626308441162
1737750712762577400,8.689577392578125,-0.1429997682571411,-2.6332454681396484,-1.133480191230774
1737750712772645400,8.699645263671876,-0.16277053952217102,-2.7543625831604004,-1.2054649591445923
1737750712782713300,8.70971337890625,-0.2373718023300171,-2.730271816253662,-1.2532594203948975
1737750712792781600,8.719781494140625,-0.352292001247406,-2.597386598587036,-1.2221227884292603
1737750712802849500,8.729849609375,-0.4367144703865051,-2.362372398376465,-1.066235899925232
1737750712812917500,8.73991748046875,-0.4209775924682617,-2.0420708656311035,-0.8101788759231567
1737750712822985500,8.7499853515625,-0.3073684573173523,-1.6915576457977295,-0.503970205783844
1737750712833053700,8.7600537109375,-0.1812659204006195,-1.3254626989364624,-0.20669804513454437
1737750712843121400,8.770121337890625,-0.08587069809436798,-0.9796533584594727,0.03262638673186302
1737750712853189400,8.780189453125,-0.028060663491487503,-0.7020739912986755,0.2163323014974594
1737750712863257300,8.79025732421875,-0.0924774706363678,-0.5807321071624756,0.3536515533924103
1737750712873325600,8.80032568359375,-0.2995142638683319,-0.6146546602249146,0.43673497438430786
1737750712883393500,8.8103935546875,-0.5864011645317078,-0.756657600402832,0.4808920621871948
1737750712893461500,8.82046142578125,-0.8478519320487976,-0.9263113141059875,0.43392375111579895
1737750712903529500,8.830529541015625,-0.9861219525337219,-1.060408115386963,0.32425716519355774
1737750712913597700,8.84059765625,-0.9587377309799194,-1.1606804132461548,0.17010675370693207
1737750712923665400,8.85066552734375,-0.8021446466445923,-1.2239766120910645,0.06353902816772461
1737750712933733400,8.8607333984375,-0.609402596950531,-1.2331109046936035,-0.03221333026885986
1737750712943802600,8.870802734375,-0.46940183639526367,-1.1861854791641235,-0.10693790018558502
1737750712953870600,8.88087060546875,-0.4129159450531006,-1.0960670709609985,-0.16323739290237427
1737750712963938600,8.8909384765625,-0.4025493264198303,-0.989479124546051,-0.18747907876968384
1737750712974006500,8.901006591796875,-0.3849543333053589,-0.8758244514465332,-0.17620006203651428
1737750712984074500,8.911074462890625,-0.347589910030365,-0.7780920267105103,-0.1434333324432373
1737750712994142500,8.921142578125,-0.27591973543167114,-0.724979817867279,-0.11320938169956207
1737750713004210400,8.93121044921875,-0.17564159631729126,-0.7050753831863403,-0.09564796090126038
1737750713014278400,8.9412783203125,-0.08319608867168427,-0.6919971108436584,-0.08601131290197372
1737750713024346600,8.9513466796875,-0.006917827297002077,-0.6733107566833496,-0.08547921478748322
1737750713034414600,8.96141455078125,0.06320133805274963,-0.6571198105812073,-0.08206477761268616
1737750713044482600,8.971482666015625,0.13306936621665955,-0.6102859973907471,-0.0686861202120781
1737750713054550500,8.981550537109374,0.22315186262130737,-0.5314686894416809,-0.046904392540454865
1737750713064618500,8.991618408203125,0.3183542788028717,-0.40493762493133545,-0.02388589084148407
1737750713074686500,9.0016865234375,0.4060218036174774,-0.23316587507724762,-0.00920521654188633
1737750713084754400,9.01175439453125,0.4737473130226135,-0.02971555106341839,0.0670088604092598
1737750713094822400,9.021822509765625,0.5054298639297485,0.21253277361392975,0.1676851361989975
1737750713104890600,9.031890625,0.5139610767364502,0.44677403569221497,0.2619597017765045
1737750713114958600,9.04195849609375,0.5188865661621094,0.6194704174995422,0.348296195268631
1737750713125026600,9.052026611328126,0.5485454201698303,0.7415867447853088,0.41389650106430054
1737750713135094500,9.062094482421875,0.5901554226875305,0.8650588989257812,0.44959884881973267
1737750713145162500,9.07216259765625,0.6217482686042786,0.9994564056396484,0.47450020909309387
1737750713155230500,9.08223046875,0.645116925239563,1.1364632844924927,0.4853121042251587
1737750713165298400,9.09229833984375,0.6819599270820618,1.248522162437439,0.5287865996360779
1737750713175366400,9.102366455078124,0.7360830903053284,1.3330044746398926,0.6047261357307434
1737750713185434600,9.1124345703125,0.7711699604988098,1.4211509227752686,0.6441329121589661
1737750713195502600,9.122502685546875,0.7513898611068726,1.5485490560531616,0.6322717070579529
1737750713205570600,9.132570556640625,0.6437454223632812,1.655305027961731,0.5823332071304321
1737750713215638300,9.14263818359375,0.464559406042099,1.6910396814346313,0.5823294520378113
1737750713225706500,9.15270654296875,0.2794231176376343,1.6019917726516724,0.5509665012359619
1737750713235774500,9.1627744140625,0.1391672044992447,1.386011004447937,0.49611762166023254
1737750713245842400,9.172842529296876,0.0138966403901577,1.1364845037460327,0.463729590177536
1737750713255910700,9.18291064453125,-0.14111824333667755,0.8939645886421204,0.44871920347213745
1737750713265978600,9.192978515625,-0.3060121238231659,0.673050045967102,0.4078335464000702
1737750713276046600,9.203046630859374,-0.4577758014202118,0.4687722623348236,0.32392001152038574
1737750713286114600,9.213114501953125,-0.557016909122467,0.27997466921806335,0.22791332006454468
1737750713296182500,9.2231826171875,-0.5845718383789062,0.17770661413669586,0.1352616846561432
1737750713306250500,9.23325048828125,-0.55208820104599,0.22702889144420624,0.062009576708078384
1737750713316318500,9.243318359375,-0.4831528067588806,0.4626123905181885,0.02136787213385105
1737750713326386400,9.253386474609375,-0.3969702422618866,0.8788591027259827,0.02118944190442562
1737750713336454700,9.26345458984375,-0.2994548976421356,1.411785364151001,0.011874236166477203
1737750713346522600,9.273522705078125,-0.17279228568077087,1.9332400560379028,-0.009469135664403439
1737750713356590600,9.283590576171875,-0.013660685159265995,2.3703055381774902,-0.027839088812470436
1737750713366658600,9.293658447265624,0.18382123112678528,2.7174932956695557,-0.03984994441270828
1737750713376726500,9.3037265625,0.41632798314094543,2.9661741256713867,-0.04849190264940262
1737750713386794500,9.31379443359375,0.6681807041168213,3.0971667766571045,-0.05760417506098747
1737750713396862500,9.323862548828124,0.9106010794639587,3.093709707260132,-0.042933352291584015
1737750713406930400,9.333930419921876,1.1042187213897705,2.9494211673736572,-0.01582636684179306
1737750713416998700,9.34399853515625,1.2260839939117432,2.6678781509399414,-0.006313555873930454
1737750713427066600,9.354066650390624,1.2756134271621704,2.23282790184021,-0.030255373567342758
1737750713437134600,9.364134521484376,1.247860312461853,1.6585900783538818,-0.11297448724508286
1737750713447202600,9.37420263671875,1.1626585721969604,0.9714369773864746,-0.25527438521385193
1737750713457270500,9.3842705078125,1.047845721244812,0.20520535111427307,-0.42986056208610535
1737750713467338500,9.39433837890625,0.9312552213668823,-0.5561470985412598,-0.6104252934455872
1737750713477406500,9.404406494140625,0.8281056880950928,-1.2463878393173218,-0.7875763773918152
1737750713487475700,9.414475830078125,0.733645498752594,-1.8465850353240967,-0.9361160397529602
1737750713497543700,9.424543701171874,0.6507721543312073,-2.3615880012512207,-1.0181113481521606
1737750713507611400,9.434611328125,0.5643746852874756,-2.809424877166748,-1.0137958526611328
1737750713517679400,9.444679443359375,0.44704219698905945,-3.126943588256836,-0.9338582158088684
1737750713527747600,9.45474755859375,0.28669461607933044,-3.19858980178833,-0.8352682590484619
1737750713537815600,9.464815673828125,0.09320317953824997,-2.988111734390259,-0.7313327789306641
1737750713547883500,9.474883544921875,-0.08372365683317184,-2.4987010955810547,-0.6344645619392395
1737750713557951500,9.484951416015624,-0.19258622825145721,-1.750536561012268,-0.5140255093574524
1737750713568019700,9.495019775390626,-0.2032061070203781,-0.862610936164856,-0.37513259053230286
1737750713578087700,9.505087646484375,-0.10869904607534409,0.02105761505663395,-0.21379803121089935
1737750713588155400,9.5151552734375,0.030187197029590607,0.8049724102020264,-0.0663880780339241
1737750713598223400,9.525223388671876,0.13250744342803955,1.421572208404541,0.045993056148290634
1737750713608291600,9.53529150390625,0.1479519158601761,1.8246933221817017,0.10962662845849991
1737750713618359600,9.545359619140624,0.06254833191633224,2.0033671855926514,0.12743571400642395
1737750713628427500,9.555427490234376,-0.07505933195352554,1.973580241203308,0.12292619049549103
1737750713638495500,9.56549560546875,-0.19266025722026825,1.7684569358825684,0.09729033708572388
1737750713648563700,9.575563720703125,-0.2522495687007904,1.4551002979278564,0.04003529995679855
1737750713658630700,9.585630615234376,-0.252765953540802,1.1047590970993042,-0.04002038761973381
1737750713668698600,9.59569873046875,-0.22877459228038788,0.7513858675956726,-0.12676459550857544
1737750713678766600,9.6057666015625,-0.22040453553199768,0.41438227891921997,-0.22682595252990723
1737750713688834600,9.61583447265625,-0.23807461559772491,0.13189198076725006,-0.3236614167690277
1737750713698902500,9.625902587890625,-0.2785658538341522,-0.045219674706459045,-0.40793901681900024
1737750713708970500,9.635970458984374,-0.3250896632671356,-0.10099772363901138,-0.4687056839466095
1737750713719038500,9.64603857421875,-0.36146312952041626,-0.03286420553922653,-0.509279727935791
1737750713729106700,9.656106689453125,-0.36167430877685547,0.13396446406841278,-0.5241715908050537
1737750713739174700,9.666174560546875,-0.3184669315814972,0.367537260055542,-0.5072395205497742
1737750713749242600,9.67624267578125,-0.24479857087135315,0.6540427803993225,-0.47399526834487915
1737750713759310600,9.686310546875,-0.14649729430675507,0.9572029113769531,-0.4254828691482544
1737750713769378600,9.696378662109375,-0.03423812985420227,1.2593278884887695,-0.37018629908561707
1737750713779446500,9.706446533203126,0.07627320289611816,1.5393822193145752,-0.30349329113960266
1737750713789514500,9.716514404296875,0.17604932188987732,1.79343581199646,-0.2402365654706955
1737750713799582500,9.72658251953125,0.25759825110435486,1.9989655017852783,-0.2000870257616043
1737750713809650700,9.736650634765626,0.3354640305042267,2.140455484390259,-0.17782671749591827
1737750713819718700,9.74671875,0.39560166001319885,2.2163350582122803,-0.17477554082870483
1737750713829786600,9.75678662109375,0.4317103922367096,2.22432279586792,-0.17258429527282715
1737750713839854600,9.7668544921875,0.4466368854045868,2.177184820175171,-0.17087161540985107
1737750713849922600,9.776922607421875,0.451590359210968,2.0997021198272705,-0.17808984220027924
1737750713859990500,9.786990478515625,0.45603570342063904,2.009753942489624,-0.19280780851840973
1737750713870058500,9.79705859375,0.45480746030807495,1.9117474555969238,-0.20710071921348572
1737750713880126700,9.807126708984375,0.440529465675354,1.8157492876052856,-0.2140025645494461
1737750713890194700,9.817194580078125,0.3866225481033325,1.754060983657837,-0.23576325178146362
1737750713900262700,9.8272626953125,0.3063846826553345,1.7297470569610596,-0.27448827028274536
1737750713910330600,9.83733056640625,0.23340795934200287,1.7221025228500366,-0.3074007034301758
1737750713920398600,9.847398681640625,0.21570326387882233,1.7391469478607178,-0.3073011040687561
1737750713930466600,9.857466552734374,0.26599279046058655,1.7899869680404663,-0.287142813205719
1737750713940534500,9.867534423828126,0.3828810751438141,1.8403034210205078,-0.30951765179634094
1737750713950602500,9.8776025390625,0.5525649189949036,1.8673973083496094,-0.3302415609359741
1737750713960670700,9.887670654296874,0.7029981017112732,1.9159680604934692,-0.3305065333843231
1737750713970738700,9.89773876953125,0.796043872833252,1.9481326341629028,-0.34706100821495056
1737750713980806700,9.907806640625,0.8027877807617188,1.9207763671875,-0.39772847294807434
1737750713990874600,9.91787451171875,0.7297034859657288,1.81548273563385,-0.48238474130630493
1737750714000942600,9.927942626953126,0.5849127173423767,1.636076807975769,-0.5595674514770508
1737750714011010600,9.938010498046875,0.37339410185813904,1.428051471710205,-0.6152871251106262
1737750714021078500,9.94807861328125,0.16199102997779846,1.2168749570846558,-0.6439914703369141
1737750714031146500,9.958146484375,-0.004485561978071928,1.0177611112594604,-0.6530156135559082
1737750714041214700,9.968214599609375,-0.10850916802883148,0.8656149506568909,-0.6379727721214294
1737750714051282700,9.97828271484375,-0.15327157080173492,0.7752371430397034,-0.5983830094337463
1737750714061350700,9.9883505859375,-0.13179850578308105,0.6990976333618164,-0.5522117614746094
1737750714071418600,9.998418701171875,-0.04470302164554596,0.5955325961112976,-0.5267860293388367
1737750714081486600,10.008486572265625,0.11111187189817429,0.4734131097793579,-0.5203412175178528
1737750714091554600,10.018554443359376,0.3152655363082886,0.3592340648174286,-0.5059270858764648
1737750714101623600,10.02862353515625,0.5314108729362488,0.2600238621234894,-0.46754294633865356
1737750714111691800,10.03869189453125,0.7260141968727112,0.17707385122776031,-0.410725474357605
1737750714121759700,10.048759765625,0.8850387334823608,0.13404302299022675,-0.35316312313079834
1737750714131827700,10.05882763671875,1.007260799407959,0.14791995286941528,-0.31913670897483826
1737750714141895400,10.0688955078125,1.0855162143707275,0.18167898058891296,-0.33273640275001526
1737750714151963600,10.078963623046874,1.096040964126587,0.22764940559864044,-0.40757203102111816
1737750714162031600,10.089031494140626,1.047247052192688,0.2904696464538574,-0.536847710609436
1737750714172099600,10.099099609375,0.9531964659690857,0.3517279326915741,-0.7009482383728027
1737750714182167600,10.10916748046875,0.8473390340805054,0.39955511689186096,-0.8511742353439331
1737750714192235800,10.11923583984375,0.7706639766693115,0.42161649465560913,-0.9491788148880005
1737750714202303700,10.1293037109375,0.7361443042755127,0.40096020698547363,-1.0132172107696533
1737750714212371700,10.139371826171875,0.7335288524627686,0.3545902967453003,-1.0182982683181763
1737750714222439400,10.149439453125,0.7549209594726562,0.32597118616104126,-0.9952011704444885
1737750714232507600,10.159507568359375,0.803298830986023,0.37087127566337585,-0.9639931917190552
1737750714242575600,10.16957568359375,0.8479957580566406,0.5048056244850159,-0.8628152012825012
1737750714252643600,10.1796435546875,0.7948886156082153,0.6714729070663452,-0.7095750570297241
1737750714262711600,10.189711669921875,0.628149151802063,0.842433750629425,-0.5424941778182983
1737750714272779800,10.19977978515625,0.433360755443573,1.072261095046997,-0.3836834728717804
1737750714282847700,10.20984765625,0.34615129232406616,1.3769197463989258,-0.27197158336639404
1737750714292915500,10.21991552734375,0.3896239399909973,1.660131573677063,-0.2484196573495865
1737750714302983400,10.2299833984375,0.4557936191558838,1.8046889305114746,-0.3226366341114044
1737750714313051600,10.2400517578125,0.46744656562805176,1.7732179164886475,-0.443785697221756
1737750714323119600,10.25011962890625,0.4326600730419159,1.611289143562317,-0.5558968186378479
1737750714333187600,10.2601875,0.3874305486679077,1.3507083654403687,-0.6424008011817932
1737750714343255600,10.270255615234374,0.38271355628967285,1.0624785423278809,-0.6918394565582275
1737750714353323800,10.28032373046875,0.43014898896217346,0.8318035006523132,-0.710634708404541
1737750714363391700,10.290391845703125,0.5161989331245422,0.6823500394821167,-0.7053020000457764
1737750714373459500,10.30045947265625,0.6250569820404053,0.5876515507698059,-0.7106810212135315
1737750714383527400,10.31052734375,0.7135295867919922,0.5481062531471252,-0.7045669555664062
1737750714393595600,10.320595703125,0.7831704020500183,0.5627602934837341,-0.6732404828071594
1737750714403663600,10.33066357421875,0.8274875283241272,0.6170728206634521,-0.6142314672470093
1737750714413731600,10.340731689453126,0.8410462141036987,0.6938703656196594,-0.5215777158737183
1737750714423799600,10.350799560546875,0.8462148904800415,0.7951229810714722,-0.4140786826610565
1737750714433867800,10.36086767578125,0.8593125939369202,0.910281777381897,-0.3095317482948303
1737750714443935700,10.370935791015626,0.8768726587295532,0.9928698539733887,-0.231922447681427
1737750714454003500,10.38100341796875,0.875245213508606,1.026997685432434,-0.17650845646858215
1737750714464071400,10.391071533203124,0.8687942624092102,1.0255460739135742,-0.1286274790763855
1737750714474139600,10.4011396484375,0.8648120164871216,0.9929638504981995,-0.1003740057349205
1737750714484207600,10.41120751953125,0.8669931292533875,0.9452823400497437,-0.07974196970462799
1737750714494275600,10.421275634765625,0.8566235899925232,0.9308459162712097,-0.05921032652258873
1737750714504343600,10.431343505859376,0.8384853601455688,0.9670981764793396,-0.051120176911354065
1737750714514411800,10.441411865234375,0.8017758131027222,1.039607286453247,-0.06376726180315018
1737750714524479700,10.451479736328125,0.7665656208992004,1.1464143991470337,-0.0952167958021164
1737750714534547500,10.46154736328125,0.7453814744949341,1.2645364999771118,-0.1335894912481308
1737750714544615400,10.471615478515625,0.753822922706604,1.3839936256408691,-0.16703426837921143
1737750714554683600,10.48168359375,0.7889401912689209,1.4787273406982422,-0.18849241733551025
1737750714564751600,10.491751708984374,0.8339547514915466,1.5410621166229248,-0.2018713355064392
1737750714574819600,10.501819580078125,0.8745232224464417,1.5812132358551025,-0.22061146795749664
1737750714584887600,10.511887451171875,0.8810938000679016,1.6011310815811157,-0.24292103946208954
1737750714594956500,10.52195654296875,0.8530213832855225,1.6072635650634766,-0.26899951696395874
1737750714605024500,10.5320244140625,0.8004002571105957,1.6039835214614868,-0.2957030236721039
1737750714615092500,10.542092529296875,0.7450917363166809,1.593134880065918,-0.3155835270881653
1737750714625160700,10.55216064453125,0.7027179002761841,1.59394109249115,-0.32220548391342163
1737750714635228700,10.562228759765626,0.6674153208732605,1.598441481590271,-0.28554174304008484
1737750714645296600,10.572296630859375,0.6219612956047058,1.6181156635284424,-0.206293523311615
1737750714655364600,10.582364501953125,0.5477986335754395,1.6381186246871948,-0.09246548265218735
1737750714665432600,10.5924326171875,0.45756062865257263,1.6621462106704712,0.017369136214256287
1737750714675500500,10.60250048828125,0.3861977756023407,1.6665757894515991,0.10313863307237625
1737750714685568500,10.612568603515625,0.3191082179546356,1.6554092168807983,0.1293225735425949
1737750714695636500,10.622636474609376,0.24904310703277588,1.6343138217926025,0.12325535714626312
1737750714705704700,10.63270458984375,0.16696155071258545,1.5519523620605469,0.08565951138734818
1737750714715772700,10.642772705078125,0.05800870805978775,1.3916369676589966,0.04397944360971451
1737750714725840600,10.652840576171876,-0.06234939396381378,1.2019554376602173,-0.00896872766315937
1737750714735908600,10.66290869140625,-0.18643459677696228,1.0178899765014648,-0.07169070094823837
1737750714745976600,10.6729765625,-0.28149959444999695,0.8638612627983093,-0.12150299549102783
1737750714756044500,10.68304443359375,-0.35669687390327454,0.7649868726730347,-0.16274283826351166
1737750714766112500,10.693112548828125,-0.4168587327003479,0.7216780185699463,-0.19273243844509125
1737750714776180500,10.703180419921875,-0.4679139256477356,0.7305716872215271,-0.20689113438129425
1737750714786248700,10.713248779296874,-0.5090728402137756,0.7564970254898071,-0.22424961626529694
1737750714796316700,10.723316650390625,-0.5405271649360657,0.7836282253265381,-0.2627032697200775
1737750714806384600,10.733384521484375,-0.5444089770317078,0.8011712431907654,-0.32659968733787537
1737750714816452600,10.74345263671875,-0.5218679904937744,0.7895886301994324,-0.41678550839424133
1737750714826520600,10.7535205078125,-0.4762818515300751,0.7221536636352539,-0.5245559215545654
1737750714836588500,10.763588623046875,-0.4089563488960266,0.6552191376686096,-0.619849681854248
1737750714846656500,10.773656494140624,-0.33878445625305176,0.6077099442481995,-0.6907102465629578
1737750714856724500,10.783724365234375,-0.2593066692352295,0.5933229923248291,-0.7492878437042236
1737750714866792700,10.793792724609375,-0.17460030317306519,0.6250734925270081,-0.7838143706321716
1737750714876860700,10.803860595703124,-0.1023292988538742,0.6923342347145081,-0.794395923614502
1737750714886928600,10.8139287109375,-0.033249832689762115,0.7969570755958557,-0.7769356966018677
1737750714896996600,10.82399658203125,0.031924378126859665,0.9337026476860046,-0.756583034992218
1737750714907064600,10.834064697265624,0.08052253723144531,1.0547252893447876,-0.7669121026992798
1737750714917132500,10.844132568359376,0.10992810130119324,1.1346129179000854,-0.8200629353523254
1737750714927200500,10.854200439453125,0.11255983263254166,1.1770538091659546,-0.8939384818077087
1737750714937268500,10.8642685546875,0.0842222049832344,1.1711530685424805,-0.9817221164703369
1737750714947336700,10.874336669921876,0.028586370870471,1.1138737201690674,-1.0825486183166504
1737750714957405400,10.884405517578125,-0.04452032968401909,1.0388320684432983,-1.1660501956939697
1737750714967473400,10.894473388671875,-0.11858417093753815,0.9339665770530701,-1.2162944078445435
1737750714977541600,10.904541748046874,-0.17974500358104706,0.8146162033081055,-1.2470355033874512
1737750714987609600,10.914609619140625,-0.19198888540267944,0.7259904742240906,-1.2138334512710571
1737750714997677600,10.924677490234375,-0.16633011400699615,0.5981369018554688,-1.1231969594955444
1737750715007745500,10.93474560546875,-0.13038703799247742,0.4131809175014496,-1.006879448890686
1737750715017813800,10.944813720703126,-0.10809344798326492,0.19833731651306152,-0.8889394402503967
1737750715027881700,10.9548818359375,-0.14636200666427612,-0.014602644369006157,-0.781623899936676
1737750715037949400,10.964949462890624,-0.24133139848709106,-0.2273884117603302,-0.7036281824111938
1737750715048017400,10.975017333984376,-0.32776322960853577,-0.37833371758461,-0.6530275940895081
1737750715058085600,10.985085693359375,-0.3812256455421448,-0.4317884147167206,-0.6073325276374817
1737750715068153600,10.995153564453124,-0.3828869163990021,-0.39820781350135803,-0.5583466291427612
1737750715078221600,11.0052216796875,-0.332981675863266,-0.3026687800884247,-0.4933825433254242
1737750715088289500,11.01528955078125,-0.25454679131507874,-0.18990282714366913,-0.40646976232528687
1737750715098357800,11.025357666015625,-0.2143666297197342,-0.10137082636356354,-0.34035465121269226
1737750715108425700,11.03542578125,-0.24209465086460114,-0.052202749997377396,-0.3029111325740814
1737750715118493400,11.045493408203125,-0.32220226526260376,-0.03160373121500015,-0.3052368760108948
1737750715128561400,11.0555615234375,-0.4219781458377838,-0.06545277684926987,-0.3518275320529938
1737750715138629600,11.065629638671876,-0.4965117573738098,-0.14081516861915588,-0.43202757835388184
1737750715148697600,11.075697509765625,-0.5084784030914307,-0.18696428835391998,-0.5168484449386597
1737750715158765600,11.085765625,-0.452936053276062,-0.21562176942825317,-0.6047202348709106
1737750715168833500,11.09583349609375,-0.35706067085266113,-0.281645268201828,-0.708480179309845
1737750715178901800,11.10590185546875,-0.26670199632644653,-0.3691665828227997,-0.8436723947525024
1737750715188969700,11.1159697265625,-0.20366737246513367,-0.46920982003211975,-0.9531474709510803
1737750715199037400,11.126037353515626,-0.16829685866832733,-0.5672807097434998,-1.0270448923110962
1737750715209105400,11.13610546875,-0.1285233497619629,-0.6531175971031189,-1.0491338968276978
1737750715219173600,11.146173583984375,-0.07643058896064758,-0.7094642519950867,-1.0418163537979126
1737750715229241600,11.15624169921875,-0.016441291198134422,-0.757775604724884,-1.0192447900772095
1737750715239309600,11.1663095703125,0.018014153465628624,-0.7879470586776733,-0.9919963479042053
1737750715249377500,11.17637744140625,0.010982077568769455,-0.8086217045783997,-0.9511189460754395
1737750715259445800,11.18644580078125,-0.007167898118495941,-0.8188104629516602,-0.8752939701080322
1737750715269513700,11.196513671875,-0.02911687269806862,-0.8428766131401062,-0.7731809020042419
1737750715279581400,11.20658154296875,-0.04456879943609238,-0.8687034249305725,-0.6454152464866638
1737750715289649400,11.2166494140625,-0.0580742210149765,-0.9292389750480652,-0.5168154239654541
1737750715299717600,11.226717529296875,-0.040652088820934296,-1.0311522483825684,-0.39333105087280273
1737750715309785600,11.23678564453125,-0.0015957661671563983,-1.1682219505310059,-0.2634662687778473
1737750715319854600,11.2468544921875,0.03489965945482254,-1.305261254310608,-0.14556971192359924
1737750715329922600,11.256922607421876,0.05258065462112427,-1.379146695137024,-0.05202937871217728
1737750715339990500,11.266990478515625,0.03804805129766464,-1.4127891063690186,-0.0011321097845211625
1737750715350058500,11.27705859375,0.01432274654507637,-1.4134244918823242,0.02491493709385395
1737750715360126500,11.28712646484375,0.003448527306318283,-1.352246642112732,0.05726861581206322
1737750715370194700,11.297194580078125,0.026200179010629654,-1.2312089204788208,0.11952613294124603
1737750715380262700,11.3072626953125,0.06462480127811432,-1.113282561302185,0.21713951230049133
1737750715390330600,11.31733056640625,0.11151827126741409,-1.019127607345581,0.346647709608078
1737750715400398600,11.327398681640625,0.1341993510723114,-0.984174907207489,0.4742477238178253
1737750715410466600,11.337466552734375,0.14782728254795074,-1.0180604457855225,0.6027377843856812
1737750715420534500,11.347534423828124,0.18132105469703674,-1.096553921699524,0.7275513410568237
1737750715430602500,11.3576025390625,0.22154676914215088,-1.195705533027649,0.8195223212242126
1737750715440670500,11.36767041015625,0.25851890444755554,-1.2924715280532837,0.8298431038856506
1737750715450738700,11.37773876953125,0.27465420961380005,-1.3877646923065186,0.7779160141944885
1737750715460806700,11.387806640625,0.258594274520874,-1.45659601688385,0.7333868741989136
1737750715470874600,11.39787451171875,0.20230676233768463,-1.4666610956192017,0.7082298398017883
1737750715480942600,11.407942626953124,0.11991841346025467,-1.4367806911468506,0.6962280869483948
1737750715491010600,11.418010498046876,0.0448785237967968,-1.401680827140808,0.6783633232116699
1737750715501078500,11.42807861328125,-0.008440090343356133,-1.4161516427993774,0.6674241423606873
1737750715511146500,11.438146484375,-0.0566323846578598,-1.4402194023132324,0.6540915369987488
1737750715521214500,11.44821435546875,-0.12405776232481003,-1.456525444984436,0.6505327224731445
1737750715531282700,11.45828271484375,-0.202296644449234,-1.4227319955825806,0.6625715494155884
1737750715541350700,11.4683505859375,-0.2881593406200409,-1.3695766925811768,0.6933148503303528
1737750715551418600,11.478418701171876,-0.3595206141471863,-1.2797154188156128,0.7543531656265259
1737750715561486600,11.488486572265625,-0.3994866907596588,-1.1717791557312012,0.8340639472007751
1737750715571554600,11.498554443359374,-0.39952370524406433,-1.0739662647247314,0.9125414490699768
1737750715581622500,11.50862255859375,-0.36475133895874023,-1.01072096824646,0.9661780595779419
1737750715591690500,11.5186904296875,-0.3189087510108948,-1.002189040184021,0.9626703858375549
1737750715601758700,11.5287587890625,-0.28059011697769165,-1.0573830604553223,0.8971662521362305
1737750715611826700,11.53882666015625,-0.25512203574180603,-1.1589906215667725,0.8000628352165222
1737750715621894700,11.548894775390625,-0.2139812707901001,-1.2643299102783203,0.6641244888305664
1737750715631962600,11.558962646484375,-0.17091955244541168,-1.363752007484436,0.5353688597679138
1737750715642031600,11.569031494140624,-0.1474837362766266,-1.4303241968154907,0.46470561623573303
1737750715652099600,11.579099609375,-0.1139979436993599,-1.4366388320922852,0.4773721396923065
1737750715662167800,11.589167724609375,-0.05958450213074684,-1.4059418439865112,0.5688440203666687
1737750715672235800,11.59923583984375,-0.019963322207331657,-1.3653565645217896,0.6675596833229065
1737750715682303700,11.6093037109375,-0.010333864018321037,-1.3123003244400024,0.7467141151428223
1737750715692371700,11.619371826171875,-0.0564451664686203,-1.2566412687301636,0.7949903011322021
1737750715702439700,11.629439697265624,-0.13389362394809723,-1.235140323638916,0.8332961797714233
1737750715712507600,11.639507568359376,-0.21033166348934174,-1.2387597560882568,0.8652927279472351
1737750715722575600,11.64957568359375,-0.2641810476779938,-1.2453681230545044,0.9030553102493286
1737750715732643800,11.659643798828125,-0.28178027272224426,-1.2546807527542114,0.9380508065223694
1737750715742711800,11.6697119140625,-0.2766076326370239,-1.3140995502471924,0.9513959288597107
1737750715752779800,11.67977978515625,-0.2716035544872284,-1.3843902349472046,0.9525003433227539
1737750715762847700,11.68984765625,-0.2645041048526764,-1.441908597946167,0.9747118949890137
1737750715772916000,11.699916015625,-0.25818681716918945,-1.4732940196990967,1.0155214071273804
1737750715782983700,11.709983642578125,-0.2631203234195709,-1.4980031251907349,1.050091028213501
1737750715793051600,11.7200517578125,-0.292741596698761,-1.5154696702957153,1.061357021331787
1737750715803119600,11.73011962890625,-0.3465084135532379,-1.4999817609786987,1.0630921125411987
1737750715813187800,11.740187744140625,-0.37450116872787476,-1.4699194431304932,1.0730706453323364
1737750715823255800,11.750255859375,-0.33667096495628357,-1.4160888195037842,1.097472906112671
1737750715833323800,11.76032373046875,-0.25338059663772583,-1.396554708480835,1.1127318143844604
1737750715843391700,11.770391845703125,-0.192808598279953,-1.4200094938278198,1.1215178966522217
1737750715853459700,11.780459716796875,-0.17475876212120056,-1.4594730138778687,1.1378384828567505
1737750715863527700,11.790527587890624,-0.18768228590488434,-1.4724642038345337,1.132792592048645
1737750715873595600,11.800595703125,-0.2014114111661911,-1.4211561679840088,1.1100199222564697
1737750715883663600,11.81066357421875,-0.1797362118959427,-1.3228280544281006,1.0784788131713867
1737750715893731800,11.82073193359375,-0.12249688804149628,-1.2153558731079102,1.0132834911346436
1737750715903799800,11.8307998046875,-0.03359231352806091,-1.0816082954406738,0.9389743804931641
1737750715913868500,11.84086865234375,0.05511118844151497,-0.9417659044265747,0.8561658263206482
1737750715923936800,11.850936767578125,0.12841762602329254,-0.8426212072372437,0.7923578023910522
1737750715934004700,11.861004638671876,0.18419034779071808,-0.7748363018035889,0.7732447981834412
1737750715944072700,11.87107275390625,0.23630893230438232,-0.7488340139389038,0.7824345827102661
1737750715954140700,11.881140625,0.2835251986980438,-0.7597657442092896,0.8092736601829529
1737750715964209000,11.891208984375,0.3001616895198822,-0.744632363319397,0.8219127655029297
1737750715974276900,11.90127685546875,0.2791924774646759,-0.6916176080703735,0.8407583236694336
1737750715984344800,11.9113447265625,0.24638181924819946,-0.6159590482711792,0.8580105900764465
1737750715994412500,11.92141259765625,0.20646129548549652,-0.5043145418167114,0.853125274181366
1737750716004480800,11.931480712890625,0.17404450476169586,-0.3706238567829132,0.832351803779602
1737750716014548700,11.941548828125,0.14685681462287903,-0.20278267562389374,0.7860770225524902
1737750716024616700,11.95161669921875,0.12702132761478424,-0.020503411069512367,0.7453418374061584
1737750716034684700,11.9616845703125,0.1098031997680664,0.13357163965702057,0.7199336886405945
1737750716044753000,11.9717529296875,0.07621141523122787,0.19665980339050293,0.6803004741668701
1737750716054820900,11.98182080078125,-0.014772554859519005,0.22369568049907684,0.5661132335662842
1737750716064888800,11.991888916015625,-0.15872466564178467,0.4795900285243988,0.44547200202941895
1737750716074956500,12.00195654296875,-0.29280683398246765,0.8890587687492371,0.3550286591053009
1737750716085024800,12.012024658203124,-0.2870943546295166,1.3915146589279175,0.3180924952030182
1737750716095092700,12.0220927734375,-0.04381805285811424,1.9461952447891235,0.2987861633300781
1737750716105160700,12.03216064453125,0.40814009308815,2.481513738632202,0.1953900009393692
1737750716115228700,12.042228759765624,0.8867082595825195,2.9296188354492188,-0.043288882821798325
1737750716125297000,12.052296875,1.2260301113128662,3.145543336868286,-0.32038414478302
1737750716135364900,12.06236474609375,1.3610183000564575,3.083366870880127,-0.49298813939094543
1737750716145432800,12.072432861328124,1.3390085697174072,2.81854510307312,-0.5433527827262878
1737750716155500500,12.08250048828125,1.2459354400634766,2.4780287742614746,-0.5406861305236816
1737750716165569800,12.09256982421875,1.121659517288208,2.1933348178863525,-0.5113588571548462
1737750716175637800,12.1026376953125,0.993660569190979,2.016267776489258,-0.48049578070640564
1737750716185705700,12.112705810546874,0.8720382452011108,1.8995758295059204,-0.40581727027893066
1737750716195774000,12.12277392578125,0.7225598096847534,1.8207169771194458,-0.267973393201828
1737750716205841700,12.132841552734375,0.5565891861915588,1.7392572164535522,-0.09013868123292923
1737750716215909600,12.14290966796875,0.3992597758769989,1.6677862405776978,0.0734875351190567
1737750716225977600,12.1529775390625,0.2484617382287979,1.542840838432312,0.27545714378356934
1737750716236045800,12.1630458984375,0.07996274530887604,1.3548357486724854,0.47108790278434753
1737750716246113800,12.17311376953125,-0.108013816177845,1.1220954656600952,0.6486653685569763
1737750716256181800,12.183181640625,-0.2885649502277374,0.8778042793273926,0.8009464740753174
1737750716266249700,12.193249755859375,-0.452823668718338,0.6697671413421631,0.9296711683273315
1737750716276318000,12.20331787109375,-0.5759479999542236,0.4944014847278595,1.004127025604248
1737750716286385700,12.2133857421875,-0.6532835364341736,0.36828935146331787,1.0771276950836182
1737750716296453600,12.22345361328125,-0.6854867339134216,0.3110966384410858,1.0918771028518677
1737750716306521600,12.233521484375,-0.6821718811988831,0.2879215478897095,1.0799192190170288
1737750716316589800,12.24358984375,-0.653627336025238,0.2419726848602295,1.069344162940979
1737750716326657800,12.25365771484375,-0.6292807459831238,0.25206926465034485,0.9669671654701233
1737750716336725800,12.263725830078124,-0.6332283020019531,0.21522416174411774,0.8835569620132446
1737750716346793700,12.273793701171876,-0.6354991793632507,0.14030250906944275,0.7435287237167358
1737750716356862000,12.283862060546875,-0.6220777034759521,0.05958370119333267,0.5946921110153198
1737750716366929700,12.2939296875,-0.601993203163147,-0.07048481702804565,0.4796352982521057
1737750716376997600,12.30399755859375,-0.5725157260894775,-0.17366233468055725,0.37969887256622314
1737750716387065600,12.314065673828125,-0.5369795560836792,-0.25539982318878174,0.3073357045650482
1737750716397134800,12.324134765625,-0.4918999671936035,-0.30651572346687317,0.290018230676651
1737750716407202800,12.334202880859374,-0.44608479738235474,-0.32813552021980286,0.2973184883594513
1737750716417270800,12.344270751953125,-0.38505738973617554,-0.2903687059879303,0.3335460126399994
1737750716427338800,12.3543388671875,-0.32131996750831604,-0.22816632688045502,0.38382115960121155
1737750716437406700,12.36440673828125,-0.2727140784263611,-0.15252536535263062,0.4273899495601654
1737750716447474700,12.374474609375,-0.23517203330993652,-0.04568439722061157,0.48540905117988586
1737750716457542700,12.384542724609375,-0.20121167600154877,0.09671135991811752,0.5662053823471069
1737750716467611000,12.39461083984375,-0.18574829399585724,0.28575053811073303,0.6524806022644043
1737750716477678800,12.404678955078126,-0.20099808275699615,0.48053890466690063,0.7397036552429199
1737750716487746800,12.414746826171875,-0.21705003082752228,0.6430245041847229,0.8117656111717224
1737750716497814500,12.424814453125,-0.20842458307743073,0.7215653657913208,0.869182288646698
1737750716507882800,12.4348828125,-0.18568864464759827,0.7174491882324219,0.9329295754432678
1737750716517950700,12.44495068359375,-0.17416781187057495,0.6248636245727539,0.9848816990852356
1737750716528018700,12.455018798828124,-0.19064344465732574,0.4568128287792206,1.0436136722564697
1737750716538086700,12.465086669921876,-0.21090318262577057,0.2842373251914978,1.087519884109497
1737750716548155000,12.47515478515625,-0.2306731641292572,0.1289859414100647,1.105350375175476
1737750716558222800,12.485222900390625,-0.23717287182807922,0.012606872245669365,1.104628324508667
1737750716568290800,12.495290771484376,-0.21470937132835388,-0.03227165341377258,1.0986742973327637
1737750716578358500,12.505358642578125,-0.166155144572258,-0.009956760331988335,1.0882086753845215
1737750716588426800,12.5154267578125,-0.14200587570667267,0.05970460921525955,1.0772204399108887
1737750716598494700,12.52549462890625,-0.1609630584716797,0.16018567979335785,1.066655158996582
1737750716608562700,12.535562744140625,-0.21632537245750427,0.2634020745754242,1.062699556350708
1737750716618630700,12.545630615234375,-0.2794729173183441,0.35466647148132324,1.0755276679992676
1737750716628699000,12.555698974609374,-0.305632621049881,0.43563777208328247,1.0743881464004517
1737750716638767600,12.565767578125,-0.2632702589035034,0.4955706000328064,1.0663124322891235
1737750716648835600,12.575835693359375,-0.16823641955852509,0.5297636985778809,1.0365002155303955
1737750716658904000,12.585904052734374,-0.07682926952838898,0.5313927531242371,1.0003594160079956
1737750716668972000,12.595971923828126,-0.03383013606071472,0.4697163701057434,0.9810220003128052
