time,seconds_elapsed,z,y,x
1737751666194211800,0.1062119140625,0.1775054931640625,-0.75048828125,-0.637939453125
1737751666204280800,0.11628076171875,0.1746063232421875,-0.748199462890625,-0.6379547119140625
1737751666214348800,0.126348876953125,0.1751251220703125,-0.748626708984375,-0.6336517333984375
1737751666224416800,0.136416748046875,0.1795654296875,-0.7468414306640625,-0.6279144287109375
1737751666234484700,0.146484619140625,0.1815643310546875,-0.7449493408203125,-0.6257781982421875
1737751666244553000,0.156552978515625,0.1856842041015625,-0.7434844970703125,-0.6298828125
1737751666254620700,0.16662060546875,0.18505859375,-0.740264892578125,-0.631500244140625
1737751666264689700,0.176689697265625,0.1866302490234375,-0.7427978515625,-0.630523681640625
1737751666274758000,0.1867578125,0.1923370361328125,-0.748504638671875,-0.63360595703125
1737751666284825900,0.196825927734375,0.187835693359375,-0.7486114501953125,-0.6401824951171875
1737751666294893800,0.206893798828125,0.18023681640625,-0.7462921142578125,-0.6375885009765625
1737751666304961800,0.2169619140625,0.1834869384765625,-0.740997314453125,-0.61285400390625
1737751666315029800,0.22702978515625,0.1903839111328125,-0.7378387451171875,-0.615631103515625
1737751666325098800,0.2370986328125,0.1957244873046875,-0.729248046875,-0.617340087890625
1737751666335166700,0.247166748046875,0.19207763671875,-0.7205810546875,-0.627197265625
1737751666345235000,0.25723486328125,0.1896209716796875,-0.7250518798828125,-0.6331329345703125
1737751666355303000,0.267302978515625,0.19781494140625,-0.74078369140625,-0.632965087890625
1737751666365370600,0.27737060546875,0.203643798828125,-0.7493133544921875,-0.6319122314453125
1737751666375438600,0.2874384765625,0.204986572265625,-0.74908447265625,-0.6269378662109375
1737751666385507800,0.2975078125,0.20452880859375,-0.7480010986328125,-0.627349853515625
1737751666395575800,0.307575927734375,0.198974609375,-0.748565673828125,-0.6271209716796875
1737751666405643800,0.317643798828125,0.191741943359375,-0.749725341796875,-0.6309967041015625
1737751666415712000,0.3277119140625,0.179534912109375,-0.7515106201171875,-0.6393585205078125
1737751666425779700,0.33777978515625,0.1730194091796875,-0.7531280517578125,-0.63848876953125
1737751666435847700,0.34784765625,0.1690826416015625,-0.755126953125,-0.62921142578125
1737751666445917000,0.3579169921875,0.166839599609375,-0.762115478515625,-0.633575439453125
1737751666455985000,0.36798486328125,0.164398193359375,-0.7677001953125,-0.6439056396484375
1737751666466052900,0.378052978515625,0.1630096435546875,-0.7685546875,-0.6451416015625
1737751666476120800,0.388120849609375,0.162506103515625,-0.7652130126953125,-0.6434173583984375
1737751666486188800,0.398188720703125,0.1585235595703125,-0.76214599609375,-0.6440887451171875
1737751666496256800,0.4082568359375,0.1520843505859375,-0.76397705078125,-0.6456756591796875
1737751666506324700,0.41832470703125,0.1500396728515625,-0.7657928466796875,-0.6461944580078125
1737751666516394000,0.42839404296875,0.1503753662109375,-0.7650146484375,-0.6478729248046875
1737751666526462000,0.4384619140625,0.1489410400390625,-0.7610626220703125,-0.6473541259765625
1737751666536529700,0.44852978515625,0.1437225341796875,-0.7605438232421875,-0.6507568359375
1737751666546597600,0.45859765625,0.1397705078125,-0.7631072998046875,-0.6533966064453125
1737751666556665900,0.468665771484375,0.1342315673828125,-0.7613067626953125,-0.6551361083984375
1737751666566733800,0.47873388671875,0.124755859375,-0.75537109375,-0.6553192138671875
1737751666576802800,0.488802734375,0.1199493408203125,-0.75030517578125,-0.65313720703125
1737751666586870800,0.498870849609375,0.1237335205078125,-0.7505340576171875,-0.6427459716796875
1737751666596938800,0.508938720703125,0.1310272216796875,-0.751617431640625,-0.62310791015625
1737751666607006700,0.5190068359375,0.1369781494140625,-0.748870849609375,-0.5967864990234375
1737751666617074700,0.52907470703125,0.1313629150390625,-0.7439117431640625,-0.5748291015625
1737751666627141600,0.5391416015625,0.12274169921875,-0.7497406005859375,-0.5636749267578125
1737751666637209600,0.549209716796875,0.1261444091796875,-0.76422119140625,-0.5677032470703125
1737751666647277600,0.559277587890625,0.123382568359375,-0.77886962890625,-0.5857696533203125
1737751666657345800,0.569345703125,0.1193389892578125,-0.7813720703125,-0.6067047119140625
1737751666667414800,0.579414794921875,0.1017913818359375,-0.7810211181640625,-0.6210174560546875
1737751666677482500,0.589482421875,0.108673095703125,-0.78167724609375,-0.6274261474609375
1737751666687550700,0.59955078125,0.1072540283203125,-0.7772216796875,-0.6411590576171875
1737751666697618700,0.60961865234375,0.1076202392578125,-0.7683258056640625,-0.659210205078125
1737751666707686700,0.619686767578125,0.1190643310546875,-0.754180908203125,-0.679107666015625
1737751666717754600,0.629754638671875,0.13525390625,-0.73907470703125,-0.6907806396484375
1737751666727823600,0.63982373046875,0.1484527587890625,-0.7323150634765625,-0.6946563720703125
1737751666737891600,0.6498916015625,0.1549224853515625,-0.7327728271484375,-0.690155029296875
1737751666747959600,0.65995947265625,0.156646728515625,-0.734771728515625,-0.681549072265625
1737751666758027800,0.67002783203125,0.155792236328125,-0.740020751953125,-0.6674652099609375
1737751666768095700,0.680095703125,0.1583709716796875,-0.746856689453125,-0.652618408203125
1737751666778163700,0.690163818359375,0.1605377197265625,-0.7506561279296875,-0.6397857666015625
1737751666788232700,0.700232666015625,0.1601104736328125,-0.752105712890625,-0.6264190673828125
1737751666798300700,0.71030078125,0.1623382568359375,-0.7460784912109375,-0.6183929443359375
1737751666808368600,0.72036865234375,0.1501922607421875,-0.736602783203125,-0.6167144775390625
1737751666818436600,0.7304365234375,0.139373779296875,-0.73193359375,-0.612091064453125
1737751666828504800,0.7405048828125,0.1407012939453125,-0.7409820556640625,-0.6047210693359375
1737751666838572800,0.75057275390625,0.1494598388671875,-0.763275146484375,-0.595245361328125
1737751666848641500,0.7606416015625,0.171875,-0.779998779296875,-0.592742919921875
1737751666858709800,0.770709716796875,0.1590118408203125,-0.79296875,-0.604644775390625
1737751666868777700,0.78077783203125,0.149627685546875,-0.81842041015625,-0.619964599609375
1737751666878845700,0.790845703125,0.166900634765625,-0.825653076171875,-0.6408538818359375
1737751666888913700,0.80091357421875,0.195465087890625,-0.790435791015625,-0.6627960205078125
1737751666898982000,0.81098193359375,0.2186431884765625,-0.74029541015625,-0.675323486328125
1737751666909049900,0.8210498046875,0.231109619140625,-0.71453857421875,-0.6811370849609375
1737751666919118600,0.83111865234375,0.2259063720703125,-0.7200164794921875,-0.6856231689453125
1737751666929186600,0.8411865234375,0.21624755859375,-0.7435302734375,-0.6887969970703125
1737751666939254800,0.8512548828125,0.2080230712890625,-0.76373291015625,-0.6859588623046875
1737751666949322800,0.86132275390625,0.208404541015625,-0.7722930908203125,-0.67449951171875
1737751666959390700,0.871390625,0.209869384765625,-0.773040771484375,-0.659393310546875
1737751666969458700,0.881458740234375,0.1920013427734375,-0.7849884033203125,-0.6503448486328125
1737751666979527700,0.891527587890625,0.1915740966796875,-0.8125152587890625,-0.645721435546875
1737751666989595600,0.901595703125,0.1927947998046875,-0.827178955078125,-0.6471405029296875
1737751666999663600,0.91166357421875,0.187164306640625,-0.8287811279296875,-0.6415863037109375
1737751667009731800,0.92173193359375,0.19873046875,-0.8135986328125,-0.6325836181640625
1737751667019799800,0.9317998046875,0.197113037109375,-0.78631591796875,-0.62689208984375
1737751667029867800,0.94186767578125,0.194061279296875,-0.758880615234375,-0.622100830078125
1737751667039936800,0.951936767578125,0.1996307373046875,-0.73455810546875,-0.61328125
1737751667050004700,0.962004638671875,0.20648193359375,-0.7118377685546875,-0.60284423828125
1737751667060072700,0.97207275390625,0.2085113525390625,-0.6942291259765625,-0.591033935546875
1737751667070140700,0.982140625,0.20916748046875,-0.68572998046875,-0.57659912109375
1737751667080209000,0.992208984375,0.2370452880859375,-0.6772003173828125,-0.560943603515625
1737751667090276600,1.002276611328125,0.219879150390625,-0.672088623046875,-0.54931640625
1737751667100345600,1.012345703125,0.213592529296875,-0.6939239501953125,-0.5374603271484375
1737751667110413800,1.022413818359375,0.226959228515625,-0.72235107421875,-0.514617919921875
1737751667120481800,1.032481689453125,0.22796630859375,-0.74993896484375,-0.4971466064453125
1737751667130549800,1.0425498046875,0.2499237060546875,-0.7737579345703125,-0.4988250732421875
1737751667140617700,1.05261767578125,0.2569122314453125,-0.7849273681640625,-0.512176513671875
1737751667150685700,1.062685791015625,0.250457763671875,-0.7946319580078125,-0.53173828125
1737751667160753700,1.072753662109375,0.27447509765625,-0.80767822265625,-0.5587005615234375
1737751667170822700,1.08282275390625,0.2949981689453125,-0.81097412109375,-0.567901611328125
1737751667180891000,1.092890869140625,0.3074493408203125,-0.8124237060546875,-0.561920166015625
1737751667190958800,1.102958740234375,0.314483642578125,-0.814849853515625,-0.55609130859375
1737751667201026600,1.113026611328125,0.321807861328125,-0.8174591064453125,-0.543182373046875
1737751667211094500,1.123094482421875,0.2690582275390625,-0.8204345703125,-0.5211181640625
1737751667221162800,1.133162841796875,0.25921630859375,-0.8148651123046875,-0.501953125
1737751667231231700,1.143231689453125,0.231597900390625,-0.8092803955078125,-0.4888458251953125
1737751667241299700,1.1532998046875,0.188232421875,-0.81976318359375,-0.481842041015625
1737751667251368700,1.16336865234375,0.1527557373046875,-0.8466339111328125,-0.4818267822265625
1737751667261436700,1.173436767578125,0.118316650390625,-0.8759307861328125,-0.486602783203125
1737751667271504600,1.183504638671875,0.089630126953125,-0.9054412841796875,-0.490631103515625
1737751667281572600,1.193572509765625,0.06964111328125,-0.9246063232421875,-0.48895263671875
1737751667291641600,1.2036416015625,0.067718505859375,-0.931976318359375,-0.4792327880859375
1737751667301709600,1.21370947265625,0.0911865234375,-0.928863525390625,-0.49163818359375
1737751667311777500,1.223777587890625,0.1068878173828125,-0.9056854248046875,-0.514862060546875
1737751667321845800,1.233845703125,0.107421875,-0.8743896484375,-0.544464111328125
1737751667331913700,1.243913818359375,0.1064910888671875,-0.85711669921875,-0.5746917724609375
1737751667341981700,1.253981689453125,0.1031494140625,-0.8586883544921875,-0.6012115478515625
1737751667352049700,1.264049560546875,0.094512939453125,-0.8723907470703125,-0.6237030029296875
1737751667362118700,1.27411865234375,0.0863037109375,-0.891448974609375,-0.6497802734375
1737751667372186600,1.2841865234375,0.0724945068359375,-0.9057769775390625,-0.6695404052734375
1737751667382254600,1.294254638671875,0.110382080078125,-0.8966217041015625,-0.660980224609375
1737751667392322800,1.30432275390625,0.1802825927734375,-0.8675384521484375,-0.616119384765625
1737751667402390800,1.314390869140625,0.22149658203125,-0.8245086669921875,-0.5611114501953125
1737751667412458800,1.324458740234375,0.242156982421875,-0.77606201171875,-0.535888671875
1737751667422527700,1.33452783203125,0.2534332275390625,-0.743621826171875,-0.5583038330078125
1737751667432595700,1.344595703125,0.2847747802734375,-0.7188568115234375,-0.5970001220703125
1737751667442663700,1.35466357421875,0.30517578125,-0.6837310791015625,-0.5980377197265625
1737751667452731600,1.364731689453125,0.2815704345703125,-0.66400146484375,-0.5634307861328125
1737751667462800000,1.3747998046875,0.2407989501953125,-0.677642822265625,-0.5370635986328125
1737751667472867800,1.384867919921875,0.2151641845703125,-0.709625244140625,-0.5310821533203125
1737751667482935600,1.394935546875,0.2007598876953125,-0.729583740234375,-0.5295257568359375
1737751667493004800,1.4050048828125,0.1828460693359375,-0.7358856201171875,-0.526947021484375
1737751667503072800,1.41507275390625,0.1794281005859375,-0.7471923828125,-0.531524658203125
1737751667513140700,1.425140625,0.203125,-0.756011962890625,-0.5426025390625
1737751667523208700,1.435208740234375,0.20556640625,-0.7566070556640625,-0.5478973388671875
1737751667533276700,1.445276611328125,0.2006072998046875,-0.76934814453125,-0.5551300048828125
1737751667543344600,1.4553447265625,0.2145538330078125,-0.789276123046875,-0.5660858154296875
1737751667553412600,1.46541259765625,0.2122344970703125,-0.80023193359375,-0.57232666015625
1737751667563481900,1.47548193359375,0.1919403076171875,-0.8104400634765625,-0.5859527587890625
1737751667573549800,1.4855498046875,0.179107666015625,-0.8252410888671875,-0.6038818359375
1737751667583617800,1.49561767578125,0.15692138671875,-0.8436279296875,-0.6192779541015625
1737751667593685500,1.505685546875,0.15386962890625,-0.8648223876953125,-0.648101806640625
1737751667603754500,1.51575439453125,0.1655120849609375,-0.8645172119140625,-0.65509033203125
1737751667613822500,1.525822509765625,0.1562957763671875,-0.85650634765625,-0.6419677734375
1737751667623891700,1.5358916015625,0.14691162109375,-0.870513916015625,-0.6446990966796875
1737751667633959400,1.54595947265625,0.137451171875,-0.8946685791015625,-0.651763916015625
1737751667644027400,1.55602734375,0.1298828125,-0.9087982177734375,-0.6545257568359375
1737751667654095600,1.566095703125,0.1287841796875,-0.9223175048828125,-0.65093994140625
1737751667664163600,1.57616357421875,0.1302337646484375,-0.9401397705078125,-0.6479644775390625
1737751667674231600,1.5862314453125,0.1348419189453125,-0.955230712890625,-0.648101806640625
1737751667684299500,1.596299560546875,0.1207427978515625,-0.9754791259765625,-0.6553955078125
1737751667694368500,1.606368408203125,0.093414306640625,-1.0025177001953125,-0.6742706298828125
1737751667704436500,1.6164365234375,0.0732574462890625,-1.0292510986328125,-0.6934661865234375
1737751667714504400,1.62650439453125,0.06317138671875,-1.0223388671875,-0.69189453125
1737751667724572400,1.636572509765625,0.047271728515625,-0.991119384765625,-0.6740570068359375
1737751667734640600,1.646640625,0.0485076904296875,-0.95703125,-0.6574859619140625
1737751667744708600,1.65670849609375,0.0629425048828125,-0.9307708740234375,-0.64324951171875
1737751667754777300,1.66677734375,0.062652587890625,-0.9168548583984375,-0.602996826171875
1737751667764845600,1.676845458984375,0.0550384521484375,-0.91839599609375,-0.5468292236328125
1737751667774913500,1.68691357421875,0.02032470703125,-0.9487457275390625,-0.5030975341796875
1737751667784981500,1.6969814453125,0.002288818359375,-1.0391998291015625,-0.4744720458984375
1737751667795049500,1.707049560546875,0.002227783203125,-1.1395111083984375,-0.4597930908203125
1737751667805117700,1.71711767578125,-0.026947021484375,-1.1293182373046875,-0.4225616455078125
1737751667815185700,1.727185546875,-0.050262451171875,-1.053131103515625,-0.3793182373046875
1737751667825254400,1.73725439453125,-0.0673675537109375,-0.9936370849609375,-0.369964599609375
1737751667835322600,1.747322509765625,-0.072784423828125,-0.9567413330078125,-0.3862762451171875
1737751667845390600,1.757390625,-0.0609283447265625,-0.9258270263671875,-0.4106292724609375
1737751667855458600,1.76745849609375,-0.061859130859375,-0.8990478515625,-0.4306182861328125
1737751667865526500,1.777526611328125,-0.072479248046875,-0.8817901611328125,-0.444000244140625
1737751667875594500,1.787594482421875,-0.092132568359375,-0.8670501708984375,-0.4382781982421875
1737751667885662500,1.797662353515625,-0.117828369140625,-0.8491058349609375,-0.4175262451171875
1737751667895731500,1.8077314453125,-0.1599884033203125,-0.8282928466796875,-0.373748779296875
1737751667905799700,1.817799560546875,-0.2040557861328125,-0.82000732421875,-0.314697265625
1737751667915867600,1.82786767578125,-0.2360076904296875,-0.8337249755859375,-0.2613525390625
1737751667925935600,1.837935546875,-0.251220703125,-0.852386474609375,-0.212371826171875
1737751667936003300,1.84800341796875,-0.272674560546875,-0.8580322265625,-0.15924072265625
1737751667946071600,1.858071533203125,-0.3001708984375,-0.8616485595703125,-0.1246795654296875
1737751667956139500,1.868139404296875,-0.324859619140625,-0.867095947265625,-0.1062469482421875
1737751667966208500,1.87820849609375,-0.3418121337890625,-0.871795654296875,-0.102447509765625
1737751667976276700,1.88827685546875,-0.3389434814453125,-0.869293212890625,-0.107177734375
1737751667986344400,1.898344482421875,-0.32269287109375,-0.8531646728515625,-0.1225433349609375
1737751667996412400,1.908412353515625,-0.2906494140625,-0.8311614990234375,-0.1517791748046875
1737751668006480400,1.91848046875,-0.25054931640625,-0.8065185546875,-0.19244384765625
1737751668016548600,1.928548583984375,-0.2198333740234375,-0.784149169921875,-0.22930908203125
1737751668026616600,1.938616455078125,-0.195648193359375,-0.7713623046875,-0.260986328125
1737751668036685600,1.948685546875,-0.176055908203125,-0.7637786865234375,-0.2836456298828125
1737751668046753500,1.95875341796875,-0.162445068359375,-0.7620391845703125,-0.2983245849609375
1737751668056821500,1.968821533203125,-0.154815673828125,-0.763763427734375,-0.3035888671875
1737751668066889500,1.978889404296875,-0.148895263671875,-0.770904541015625,-0.308135986328125
1737751668076957400,1.98895751953125,-0.1546630859375,-0.7848358154296875,-0.3025054931640625
1737751668087025700,1.999025634765625,-0.1611328125,-0.8119964599609375,-0.296142578125
1737751668097093600,2.00909375,-0.16107177734375,-0.831207275390625,-0.283905029296875
1737751668107162400,2.019162353515625,-0.1737060546875,-0.8433380126953125,-0.27117919921875
1737751668117230300,2.029230224609375,-0.18365478515625,-0.856658935546875,-0.2660369873046875
1737751668127298600,2.039298583984375,-0.1877288818359375,-0.86285400390625,-0.26568603515625
1737751668137366500,2.049366455078125,-0.185577392578125,-0.862884521484375,-0.2747344970703125
1737751668147434500,2.0594345703125,-0.1784820556640625,-0.8533935546875,-0.288665771484375
1737751668157502500,2.06950244140625,-0.166656494140625,-0.84344482421875,-0.30535888671875
1737751668167571500,2.079571533203125,-0.1463470458984375,-0.8361358642578125,-0.3160400390625
1737751668177639400,2.089639404296875,-0.1199951171875,-0.825347900390625,-0.315765380859375
1737751668187707400,2.099707275390625,-0.1005096435546875,-0.8062286376953125,-0.3071441650390625
1737751668197775600,2.109775634765625,-0.08795166015625,-0.83526611328125,-0.3556365966796875
1737751668207843600,2.119843505859375,-0.0403289794921875,-0.89141845703125,-0.4022369384765625
1737751668217911600,2.12991162109375,-0.0096282958984375,-0.901947021484375,-0.420654296875
1737751668227979500,2.1399794921875,0.005462646484375,-0.8961334228515625,-0.4484405517578125
1737751668238048500,2.150048583984375,0.0164031982421875,-0.8938140869140625,-0.47735595703125
1737751668248116500,2.160116455078125,0.0248565673828125,-0.897613525390625,-0.5023040771484375
1737751668258184400,2.170184326171875,0.027984619140625,-0.8948822021484375,-0.51995849609375
1737751668268252700,2.180252685546875,0.0306854248046875,-0.88812255859375,-0.5367279052734375
1737751668278320600,2.190320556640625,0.0321197509765625,-0.897064208984375,-0.566497802734375
1737751668288388600,2.200388671875,0.0356292724609375,-0.9003448486328125,-0.59710693359375
1737751668298456300,2.210456298828125,0.0327606201171875,-0.893951416015625,-0.61126708984375
1737751668308525600,2.220525634765625,0.028411865234375,-0.8943939208984375,-0.6101531982421875
1737751668318593500,2.230593505859375,0.0278778076171875,-0.898284912109375,-0.5974273681640625
1737751668328661500,2.24066162109375,0.0249176025390625,-0.900848388671875,-0.58123779296875
1737751668338729700,2.250729736328125,0.0229034423828125,-0.889373779296875,-0.560943603515625
1737751668348797400,2.26079736328125,0.023681640625,-0.88323974609375,-0.540740966796875
1737751668358865400,2.270865478515625,0.0123748779296875,-0.8838958740234375,-0.524658203125
1737751668368933400,2.280933349609375,0.0017547607421875,-0.90911865234375,-0.5125732421875
1737751668379002600,2.291002685546875,0.00445556640625,-0.95458984375,-0.500732421875
1737751668389070600,2.301070556640625,0.010894775390625,-0.99615478515625,-0.4784698486328125
1737751668399138600,2.311138671875,0.0096893310546875,-1.037353515625,-0.4736480712890625
1737751668409206500,2.32120654296875,0.0065460205078125,-1.074951171875,-0.4684906005859375
1737751668419274500,2.3312744140625,-0.012664794921875,-1.075347900390625,-0.4312896728515625
1737751668429342500,2.341342529296875,-0.0533447265625,-1.0640716552734375,-0.3985443115234375
1737751668439410400,2.351410400390625,-0.0931396484375,-1.0509033203125,-0.3726806640625
1737751668449479700,2.361479736328125,-0.1292877197265625,-1.05670166015625,-0.377410888671875
1737751668459547400,2.37154736328125,-0.1079864501953125,-1.140228271484375,-0.4036407470703125
1737751668469615400,2.381615478515625,-0.0525665283203125,-1.26544189453125,-0.4344940185546875
1737751668479683600,2.39168359375,-0.01397705078125,-1.3123626708984375,-0.435699462890625
1737751668489751600,2.40175146484375,-0.011260986328125,-1.3015594482421875,-0.4261322021484375
1737751668499819500,2.411819580078125,-0.0334930419921875,-1.2993927001953125,-0.4240875244140625
1737751668509887500,2.421887451171875,-0.037353515625,-1.281280517578125,-0.3705596923828125
1737751668519956500,2.43195654296875,-0.039703369140625,-1.2342681884765625,-0.2974700927734375
1737751668530024400,2.4420244140625,-0.0554656982421875,-1.1675872802734375,-0.244232177734375
1737751668540092400,2.452092529296875,-0.07220458984375,-1.0972900390625,-0.2158203125
1737751668550160600,2.46216064453125,-0.0835418701171875,-1.045623779296875,-0.2040252685546875
1737751668560228600,2.472228515625,-0.0752716064453125,-1.031585693359375,-0.2007293701171875
1737751668570296600,2.482296630859375,-0.046722412109375,-1.046539306640625,-0.212005615234375
1737751668580364500,2.492364501953125,-0.009490966796875,-1.058135986328125,-0.2397918701171875
1737751668590432800,2.502432861328125,0.0255889892578125,-1.0488128662109375,-0.27838134765625
1737751668600501500,2.51250146484375,0.0485992431640625,-1.021392822265625,-0.3189544677734375
1737751668610572500,2.522572509765625,0.0644378662109375,-0.983978271484375,-0.354766845703125
1737751668620640500,2.532640625,0.071868896484375,-0.94091796875,-0.377197265625
1737751668630708500,2.54270849609375,0.0850830078125,-0.8991851806640625,-0.390167236328125
1737751668640776700,2.552776611328125,0.097869873046875,-0.864837646484375,-0.3997344970703125
1737751668650844700,2.5628447265625,0.11395263671875,-0.8370819091796875,-0.40264892578125
1737751668660912600,2.57291259765625,0.1301727294921875,-0.8087310791015625,-0.3904876708984375
1737751668670981600,2.582981689453125,0.13409423828125,-0.787078857421875,-0.364044189453125
1737751668681049600,2.593049560546875,0.119720458984375,-0.78668212890625,-0.32647705078125
1737751668691117600,2.60311767578125,0.102142333984375,-0.8051300048828125,-0.2852935791015625
1737751668701185500,2.613185546875,0.0848846435546875,-0.83111572265625,-0.242645263671875
1737751668711253800,2.623253662109375,0.0602264404296875,-0.850494384765625,-0.2004241943359375
1737751668721321500,2.633321533203125,0.037109375,-0.8642578125,-0.15911865234375
1737751668731389400,2.643389404296875,0.0174407958984375,-0.8725128173828125,-0.1170654296875
1737751668741458400,2.65345849609375,0.0160980224609375,-0.8712005615234375,-0.0728302001953125
1737751668751526700,2.663526611328125,0.028594970703125,-0.851104736328125,-0.033416748046875
1737751668761594600,2.6735947265625,0.0187835693359375,-0.817657470703125,-0.0169830322265625
1737751668771662600,2.68366259765625,0.012725830078125,-0.796478271484375,-0.028564453125
1737751668781730300,2.693730224609375,0.0146636962890625,-0.7917022705078125,-0.0577850341796875
1737751668791798500,2.703798583984375,0.0069427490234375,-0.80401611328125,-0.099761962890625
1737751668801866500,2.713866455078125,0.0113525390625,-0.8294219970703125,-0.134124755859375
1737751668811935500,2.723935546875,0.02740478515625,-0.8411712646484375,-0.1542205810546875
1737751668822003700,2.734003662109375,0.0250701904296875,-0.841278076171875,-0.1671600341796875
1737751668832071400,2.744071533203125,0.020172119140625,-0.8354339599609375,-0.1826171875
1737751668842139400,2.754139404296875,0.029510498046875,-0.8435211181640625,-0.2121734619140625
1737751668852207400,2.764207275390625,0.0258026123046875,-0.86669921875,-0.2485809326171875
1737751668862275600,2.774275634765625,0.0276336669921875,-0.90277099609375,-0.295867919921875
1737751668872343600,2.784343505859375,0.0308380126953125,-0.933502197265625,-0.3440704345703125
1737751668882412500,2.79441259765625,0.03314208984375,-0.951263427734375,-0.3837127685546875
1737751668892480500,2.80448046875,0.0108795166015625,-0.9696197509765625,-0.425323486328125
1737751668902548500,2.814548583984375,0.00604248046875,-1.005401611328125,-0.4709014892578125
1737751668912616400,2.824616455078125,-0.000640869140625,-1.044525146484375,-0.4936676025390625
1737751668922684400,2.834684326171875,-0.0134429931640625,-1.079254150390625,-0.4936370849609375
1737751668932752600,2.844752685546875,-0.02783203125,-1.1180267333984375,-0.500091552734375
1737751668942820600,2.854820556640625,-0.0387725830078125,-1.1615447998046875,-0.5100555419921875
1737751668952889300,2.864889404296875,-0.0778350830078125,-1.1772613525390625,-0.504608154296875
1737751668962957600,2.87495751953125,-0.1041259765625,-1.186553955078125,-0.5080108642578125
1737751668973025500,2.885025634765625,-0.110198974609375,-1.1574554443359375,-0.5005645751953125
1737751668983093500,2.895093505859375,-0.1009979248046875,-1.0936737060546875,-0.4420166015625
1737751668993161500,2.905161376953125,-0.1009521484375,-1.0272369384765625,-0.3563385009765625
1737751669003229700,2.915229736328125,-0.11358642578125,-0.9872589111328125,-0.3029022216796875
1737751669013297700,2.925297607421875,-0.128021240234375,-0.97515869140625,-0.2989654541015625
1737751669023366400,2.935366455078125,-0.113311767578125,-1.0034942626953125,-0.327667236328125
1737751669033434600,2.9454345703125,-0.0841064453125,-1.1154632568359375,-0.3859710693359375
1737751669043502600,2.955502685546875,-0.0500335693359375,-1.2183837890625,-0.4741973876953125
1737751669053570600,2.965570556640625,-0.04693603515625,-1.1888885498046875,-0.5279693603515625
1737751669063638500,2.975638427734375,-0.1018218994140625,-1.07861328125,-0.5547027587890625
1737751669073706800,2.985706787109375,-0.147705078125,-0.976806640625,-0.575408935546875
1737751669083774500,2.9957744140625,-0.17486572265625,-0.8580322265625,-0.5703277587890625
1737751669093843500,3.005843505859375,-0.2127227783203125,-0.6988677978515625,-0.5258636474609375
1737751669103911700,3.01591162109375,-0.2706451416015625,-0.574432373046875,-0.4824981689453125
1737751669113979600,3.025979736328125,-0.3307952880859375,-0.5625762939453125,-0.4771270751953125
1737751669124047600,3.036047607421875,-0.3484954833984375,-0.6764984130859375,-0.5046539306640625
1737751669134115600,3.046115478515625,-0.2979736328125,-0.8407745361328125,-0.512786865234375
1737751669144183600,3.05618359375,-0.2368011474609375,-0.9474945068359375,-0.4698333740234375
1737751669154251500,3.06625146484375,-0.2412109375,-0.9775390625,-0.4073028564453125
1737751669164320500,3.076320556640625,-0.2548370361328125,-0.9726104736328125,-0.34539794921875
1737751669174388700,3.086388671875,-0.2418060302734375,-0.969146728515625,-0.300628662109375
1737751669184456700,3.096456787109375,-0.205291748046875,-0.9632110595703125,-0.283111572265625
1737751669194524400,3.1065244140625,-0.164642333984375,-0.93695068359375,-0.2965850830078125
1737751669204592400,3.11659228515625,-0.13494873046875,-0.8860015869140625,-0.327362060546875
1737751669214660600,3.12666064453125,-0.1063995361328125,-0.822509765625,-0.3584442138671875
1737751669224729600,3.1367294921875,-0.09613037109375,-0.760467529296875,-0.3774566650390625
1737751669234797600,3.146797607421875,-0.08251953125,-0.71734619140625,-0.3888092041015625
1737751669244865500,3.156865478515625,-0.0567779541015625,-0.678466796875,-0.3981170654296875
1737751669254933500,3.16693359375,-0.046966552734375,-0.6397247314453125,-0.408447265625
1737751669265001500,3.17700146484375,-0.014678955078125,-0.6071624755859375,-0.4379730224609375
1737751669275069400,3.1870693359375,0.035552978515625,-0.583770751953125,-0.4817657470703125
1737751669285137400,3.197137451171875,0.091552734375,-0.5576934814453125,-0.517547607421875
1737751669295206700,3.20720654296875,0.1443634033203125,-0.5125885009765625,-0.5451202392578125
1737751669305274400,3.2172744140625,0.1624603271484375,-0.4525299072265625,-0.5561981201171875
1737751669315342300,3.22734228515625,0.1346588134765625,-0.41937255859375,-0.5478057861328125
1737751669325410600,3.23741064453125,0.072113037109375,-0.441253662109375,-0.5366973876953125
1737751669335478500,3.247478515625,0.0044403076171875,-0.4949493408203125,-0.543060302734375
1737751669345546500,3.25754638671875,-0.0482635498046875,-0.545928955078125,-0.5609283447265625
1737751669355614500,3.267614501953125,-0.080169677734375,-0.596160888671875,-0.5959625244140625
1737751669365683500,3.277683349609375,-0.097991943359375,-0.666290283203125,-0.66009521484375
1737751669375751400,3.28775146484375,-0.09381103515625,-0.74041748046875,-0.7256011962890625
1737751669385819400,3.2978193359375,-0.079620361328125,-0.8023223876953125,-0.7634124755859375
1737751669395887600,3.3078876953125,-0.0568084716796875,-0.8558349609375,-0.767822265625
1737751669405955600,3.31795556640625,-0.041015625,-0.872955322265625,-0.7342071533203125
1737751669416023600,3.3280234375,-0.0541534423828125,-0.865753173828125,-0.676483154296875
1737751669426092500,3.338092529296875,-0.0879364013671875,-0.8649444580078125,-0.6241912841796875
1737751669436160500,3.348160400390625,-0.1265869140625,-0.88232421875,-0.588775634765625
1737751669446228500,3.358228515625,-0.157928466796875,-0.896881103515625,-0.56048583984375
1737751669456296400,3.36829638671875,-0.1823272705078125,-0.919708251953125,-0.5380401611328125
1737751669466364700,3.37836474609375,-0.1921844482421875,-0.94537353515625,-0.5226287841796875
1737751669476432600,3.3884326171875,-0.1766204833984375,-0.978240966796875,-0.513824462890625
1737751669486500600,3.39850048828125,-0.1463775634765625,-0.9873504638671875,-0.4941558837890625
1737751669496569600,3.408569580078125,-0.1233367919921875,-0.9896240234375,-0.47186279296875
1737751669506637600,3.418637451171875,-0.10308837890625,-0.993743896484375,-0.4557647705078125
1737751669516705500,3.42870556640625,-0.08270263671875,-0.9837188720703125,-0.4501953125
1737751669526773500,3.4387734375,-0.0640106201171875,-0.964813232421875,-0.46142578125
1737751669536841700,3.448841796875,-0.0423126220703125,-0.981231689453125,-0.4956817626953125
1737751669546909700,3.45890966796875,0.004974365234375,-1.0884552001953125,-0.5449371337890625
1737751669556977400,3.468977294921875,0.0581512451171875,-1.2384185791015625,-0.5955352783203125
1737751669567046700,3.479046630859375,0.0914459228515625,-1.3033905029296875,-0.6343994140625
1737751669577114600,3.489114501953125,0.0828399658203125,-1.2704925537109375,-0.6309051513671875
1737751669587182600,3.4991826171875,0.0420379638671875,-1.19384765625,-0.5803375244140625
1737751669597250600,3.50925048828125,-0.02081298828125,-1.1029510498046875,-0.50390625
1737751669607315200,3.519315185546875,-0.07769775390625,-1.04315185546875,-0.4410247802734375
1737751669617383200,3.529383056640625,-0.0938568115234375,-1.029205322265625,-0.4200897216796875
1737751669627452200,3.5394521484375,-0.0606842041015625,-1.0324859619140625,-0.4251861572265625
1737751669637520400,3.549520263671875,-0.01312255859375,-1.0243682861328125,-0.4459991455078125
1737751669647588400,3.55958837890625,0.0347900390625,-1.0120086669921875,-0.4691619873046875
1737751669657656300,3.56965625,0.083648681640625,-0.987640380859375,-0.473968505859375
1737751669667724000,3.57972412109375,0.1314849853515625,-0.95843505859375,-0.4606781005859375
1737751669677792300,3.589792236328125,0.178466796875,-0.9354248046875,-0.4505767822265625
1737751669687860200,3.599860107421875,0.232696533203125,-0.9166412353515625,-0.439697265625
1737751669697929200,3.60992919921875,0.2757415771484375,-0.903045654296875,-0.4155120849609375
1737751669707997200,3.6199970703125,0.279266357421875,-0.913604736328125,-0.3881683349609375
1737751669718065200,3.630065185546875,0.25634765625,-0.9466705322265625,-0.3698883056640625
1737751669728133000,3.640133056640625,0.236572265625,-0.9907989501953125,-0.367584228515625
1737751669738201000,3.650201171875,0.22955322265625,-1.02001953125,-0.3679962158203125
1737751669748269000,3.66026904296875,0.2136688232421875,-1.02093505859375,-0.344146728515625
1737751669758338300,3.67033837890625,0.1754913330078125,-1.0115509033203125,-0.303436279296875
1737751669768406300,3.68040625,0.14691162109375,-1.0012969970703125,-0.272735595703125
1737751669778474000,3.690473876953125,0.119842529296875,-0.9845123291015625,-0.2409210205078125
1737751669788542200,3.700542236328125,0.0725860595703125,-0.9679107666015625,-0.2076568603515625
1737751669798610200,3.710610107421875,0.01873779296875,-0.960357666015625,-0.1834716796875
1737751669808678100,3.72067822265625,-0.020599365234375,-0.939605712890625,-0.164215087890625
1737751669818747400,3.730747314453125,-0.05670166015625,-0.919464111328125,-0.133758544921875
1737751669828815000,3.740815185546875,-0.0855865478515625,-0.9141998291015625,-0.0920562744140625
1737751669838883000,3.750883056640625,-0.11279296875,-0.9007568359375,-0.0434417724609375
1737751669848951000,3.760950927734375,-0.1398162841796875,-0.871368408203125,-0.007659912109375
1737751669859019300,3.771019287109375,-0.1555938720703125,-0.8464508056640625,-0.0034637451171875
1737751669869087200,3.781087158203125,-0.1317901611328125,-0.819000244140625,-0.017364501953125
1737751669879156200,3.79115625,-0.0861663818359375,-0.7720184326171875,-0.019866943359375
1737751669889224200,3.80122412109375,-0.0751495361328125,-0.7344207763671875,-0.0366973876953125
1737751669899292200,3.811292236328125,-0.0638275146484375,-0.745269775390625,-0.061859130859375
1737751669909360000,3.821360107421875,-0.0160369873046875,-0.777679443359375,-0.0840606689453125
1737751669919428000,3.831427978515625,0.01031494140625,-0.7978668212890625,-0.0974884033203125
1737751669929496300,3.841496337890625,0.0203857421875,-0.813140869140625,-0.1033477783203125
1737751669939564300,3.851564208984375,0.0236358642578125,-0.8250885009765625,-0.1097259521484375
1737751669949633000,3.861633056640625,0.021514892578125,-0.843780517578125,-0.126739501953125
1737751669959701200,3.871701171875,0.0138092041015625,-0.864105224609375,-0.1536102294921875
1737751669969769200,3.881769287109375,0.0125579833984375,-0.88262939453125,-0.2032928466796875
1737751669979837200,3.891837158203125,0.01129150390625,-0.9011993408203125,-0.2597808837890625
1737751669989905200,3.9019052734375,-0.0016326904296875,-0.91375732421875,-0.3074188232421875
1737751669999974100,3.91197412109375,-0.0133514404296875,-0.92742919921875,-0.356842041015625
1737751670010042000,3.9220419921875,-0.0256805419921875,-0.943450927734375,-0.4105224609375
1737751670020110000,3.932110107421875,-0.0373992919921875,-0.9662628173828125,-0.463226318359375
1737751670030178300,3.94217822265625,-0.0460968017578125,-1.0020904541015625,-0.517303466796875
1737751670040246300,3.952246337890625,-0.0504302978515625,-1.04107666015625,-0.568023681640625
1737751670050314200,3.962314208984375,-0.063690185546875,-1.0784454345703125,-0.606109619140625
1737751670060383000,3.972383056640625,-0.0916290283203125,-1.110595703125,-0.64105224609375
1737751670070451200,3.982451171875,-0.124786376953125,-1.1361846923828125,-0.6653289794921875
1737751670080519200,3.992519287109375,-0.131805419921875,-1.154083251953125,-0.675262451171875
1737751670090587100,4.002587158203125,-0.1075439453125,-1.175384521484375,-0.6711578369140625
1737751670100655400,4.0126552734375,-0.05743408203125,-1.2285003662109375,-0.6847381591796875
1737751670110723300,4.022723388671875,0.015716552734375,-1.3799285888671875,-0.7314910888671875
1737751670120792000,4.0327919921875,0.050048828125,-1.5756378173828125,-0.755950927734375
1737751670130860000,4.042860107421875,-0.00823974609375,-1.5997467041015625,-0.76397705078125
1737751670140928300,4.05292822265625,-0.1360931396484375,-1.4191741943359375,-0.742767333984375
1737751670150996200,4.062996337890625,-0.247650146484375,-1.1510009765625,-0.6690216064453125
1737751670161064200,4.073064208984375,-0.2799530029296875,-0.866790771484375,-0.5781707763671875
1737751670171132200,4.083132080078125,-0.2999267578125,-0.6487884521484375,-0.510986328125
1737751670181201200,4.093201171875,-0.270843505859375,-0.5107421875,-0.43804931640625
1737751670191269000,4.10326904296875,-0.2178497314453125,-0.3895111083984375,-0.34979248046875
1737751670201337000,4.113337158203125,-0.1722564697265625,-0.30877685546875,-0.2773590087890625
1737751670211405300,4.1234052734375,-0.13671875,-0.319366455078125,-0.22906494140625
1737751670221473300,4.133473388671875,-0.1255950927734375,-0.4619598388671875,-0.212646484375
1737751670231541200,4.143541259765625,-0.1243438720703125,-0.6961517333984375,-0.216339111328125
1737751670241610200,4.1536103515625,-0.121368408203125,-0.918243408203125,-0.2140960693359375
1737751670251678200,4.16367822265625,-0.12384033203125,-1.0497283935546875,-0.21710205078125
1737751670261746200,4.17374609375,-0.1410369873046875,-1.073272705078125,-0.2539215087890625
1737751670271814100,4.183814208984375,-0.134552001953125,-1.0206756591796875,-0.333831787109375
1737751670281882400,4.19388232421875,-0.0937347412109375,-0.9337921142578125,-0.4337921142578125
1737751670291951000,4.203951171875,-0.053466796875,-0.8332977294921875,-0.5373687744140625
1737751670302019000,4.21401904296875,-0.02532958984375,-0.7588348388671875,-0.649993896484375
1737751670312087300,4.22408740234375,-0.009857177734375,-0.7270355224609375,-0.7710113525390625
1737751670322155300,4.2341552734375,-0.01019287109375,-0.7235260009765625,-0.86700439453125
1737751670332223200,4.24422314453125,-0.0321502685546875,-0.728302001953125,-0.9073333740234375
1737751670342291200,4.254291259765625,-0.0671539306640625,-0.73272705078125,-0.8796844482421875
1737751670352360200,4.264360107421875,-0.108184814453125,-0.7311248779296875,-0.7819976806640625
1737751670362428200,4.27442822265625,-0.154205322265625,-0.725067138671875,-0.6428375244140625
1737751670372496100,4.28449609375,-0.16851806640625,-0.73785400390625,-0.4993896484375
1737751670382564400,4.294564453125,-0.1645050048828125,-0.7498779296875,-0.3646697998046875
1737751670392632300,4.30463232421875,-0.1620941162109375,-0.741455078125,-0.2476348876953125
1737751670402701000,4.314701171875,-0.1651153564453125,-0.7234954833984375,-0.17071533203125
1737751670412769000,4.32476904296875,-0.1763458251953125,-0.7117767333984375,-0.1464996337890625
1737751670422837200,4.334837158203125,-0.1850433349609375,-0.7139129638671875,-0.1649322509765625
1737751670432905200,4.3449052734375,-0.1849365234375,-0.73260498046875,-0.215087890625
1737751670442973200,4.35497314453125,-0.180877685546875,-0.758056640625,-0.278076171875
1737751670453041400,4.36504150390625,-0.1693878173828125,-0.7776031494140625,-0.348175048828125
1737751670463110100,4.375110107421875,-0.1561737060546875,-0.7822723388671875,-0.4179840087890625
1737751670473178000,4.38517822265625,-0.1456146240234375,-0.772064208984375,-0.4803314208984375
1737751670483246000,4.39524609375,-0.13006591796875,-0.7543182373046875,-0.533203125
1737751670493314300,4.405314208984375,-0.1058807373046875,-0.7475128173828125,-0.5733184814453125
1737751670503382300,4.41538232421875,-0.0699462890625,-0.7606964111328125,-0.5894317626953125
1737751670513451000,4.425450927734375,-0.03631591796875,-0.7789154052734375,-0.579193115234375
1737751670523519200,4.435519287109375,-0.011474609375,-0.7898101806640625,-0.535797119140625
1737751670533587200,4.445587158203125,0.0028228759765625,-0.8003997802734375,-0.4683380126953125
1737751670543655200,4.4556552734375,0.00390625,-0.81829833984375,-0.3938446044921875
1737751670553723100,4.46572314453125,0.0050811767578125,-0.85931396484375,-0.3227691650390625
1737751670563791400,4.475791259765625,0.0142364501953125,-0.92987060546875,-0.2696990966796875
1737751670573860000,4.485860107421875,0.045562744140625,-1.034027099609375,-0.253570556640625
1737751670583928000,4.495927978515625,0.1116485595703125,-1.2054290771484375,-0.2913055419921875
1737751670593996300,4.505996337890625,0.211212158203125,-1.45147705078125,-0.30169677734375
1737751670604064300,4.516064208984375,0.2335357666015625,-1.5629119873046875,-0.20013427734375
1737751670614135600,4.526135498046875,0.1656341552734375,-1.3614349365234375,-0.04949951171875
1737751670624204500,4.53620458984375,0.077362060546875,-1.08941650390625,0.0557708740234375
1737751670634272500,4.5462724609375,0.0081787109375,-1.0013427734375,0.0645751953125
1737751670644340500,4.556340576171875,0.017333984375,-1.0565338134765625,-0.0000762939453125
1737751670654408400,4.566408447265625,0.0810394287109375,-1.1422271728515625,-0.08428955078125
1737751670664476700,4.5764765625,0.14678955078125,-1.2007293701171875,-0.15875244140625
1737751670674545400,4.58654541015625,0.18896484375,-1.234649658203125,-0.2145843505859375
1737751670684613400,4.59661328125,0.212921142578125,-1.234161376953125,-0.238311767578125
1737751670694681600,4.606681640625,0.19781494140625,-1.23040771484375,-0.230743408203125
1737751670704749600,4.61674951171875,0.1470184326171875,-1.224700927734375,-0.202972412109375
1737751670714817500,4.626817626953125,0.10040283203125,-1.1894378662109375,-0.1724700927734375
1737751670724885500,4.636885498046875,0.080047607421875,-1.1342620849609375,-0.146270751953125
1737751670734954500,4.64695458984375,0.08477783203125,-1.0832061767578125,-0.1262969970703125
1737751670745022500,4.6570224609375,0.0938262939453125,-1.035797119140625,-0.1248779296875
1737751670755090400,4.66709033203125,0.1070709228515625,-0.9987030029296875,-0.15228271484375
1737751670765158400,4.677158447265625,0.1123046875,-0.9713287353515625,-0.187469482421875
1737751670775226600,4.6872265625,0.1018829345703125,-0.951080322265625,-0.20257568359375
1737751670785295400,4.69729541015625,0.0945587158203125,-0.9451751708984375,-0.1923370361328125
1737751670795363300,4.70736328125,0.092864990234375,-0.949615478515625,-0.16571044921875
1737751670805431600,4.717431640625,0.100738525390625,-0.94818115234375,-0.134307861328125
1737751670815499500,4.72749951171875,0.1101531982421875,-0.9320220947265625,-0.10693359375
1737751670825567500,4.7375673828125,0.108795166015625,-0.9081268310546875,-0.0859527587890625
1737751670835635500,4.747635498046875,0.1222686767578125,-0.890289306640625,-0.0652008056640625
1737751670845704400,4.757704345703125,0.1305999755859375,-0.87451171875,-0.042205810546875
1737751670855772400,4.7677724609375,0.1470947265625,-0.8780975341796875,-0.028289794921875
1737751670865840400,4.77784033203125,0.1558685302734375,-0.887481689453125,-0.027099609375
1737751670875908600,4.78790869140625,0.1571502685546875,-0.902557373046875,-0.0435333251953125
1737751670885976600,4.7979765625,0.1578369140625,-0.924102783203125,-0.0720367431640625
1737751670896045600,4.808045654296875,0.1526031494140625,-0.94189453125,-0.1059112548828125
1737751670906113500,4.818113525390625,0.151763916015625,-0.956146240234375,-0.1376495361328125
1737751670916181500,4.828181396484375,0.1558685302734375,-0.964385986328125,-0.1627044677734375
1737751670926249500,4.83824951171875,0.162933349609375,-0.9656524658203125,-0.182373046875
1737751670936317400,4.8483173828125,0.164581298828125,-0.9633941650390625,-0.2009735107421875
1737751670946386700,4.85838671875,0.1607208251953125,-0.959075927734375,-0.2175750732421875
1737751670956454400,4.868454345703125,0.1574859619140625,-0.9561614990234375,-0.2333526611328125
1737751670966522400,4.8785224609375,0.154815673828125,-0.961944580078125,-0.25372314453125
1737751670976590600,4.888590576171875,0.1522674560546875,-0.971282958984375,-0.275390625
1737751670986658600,4.898658447265625,0.14947509765625,-0.971527099609375,-0.28399658203125
1737751670996726500,4.9087265625,0.142486572265625,-0.962158203125,-0.28253173828125
1737751671006795500,4.91879541015625,0.1330718994140625,-0.94903564453125,-0.2813720703125
1737751671016863500,4.928863525390625,0.122222900390625,-0.9406585693359375,-0.2855377197265625
1737751671026931500,4.938931396484375,0.111114501953125,-0.94549560546875,-0.2957611083984375
1737751671036999400,4.94899951171875,0.1011505126953125,-0.95953369140625,-0.3111419677734375
1737751671047067600,4.959067626953125,0.090179443359375,-0.9753265380859375,-0.3232879638671875
1737751671057136600,4.96913671875,0.0828399658203125,-0.9971771240234375,-0.33209228515625
1737751671067204400,4.979204345703125,0.0859527587890625,-1.040863037109375,-0.3560333251953125
1737751671077272300,4.989272216796875,0.10345458984375,-1.13421630859375,-0.4024658203125
1737751671087340500,4.999340576171875,0.079620361328125,-1.2249908447265625,-0.439544677734375
1737751671097408500,5.009408447265625,-0.0145263671875,-1.2030487060546875,-0.4591827392578125
1737751671107477500,5.0194775390625,-0.1183929443359375,-1.0633392333984375,-0.476104736328125
1737751671117545700,5.029545654296875,-0.1918792724609375,-0.914886474609375,-0.4965362548828125
1737751671127613400,5.039613525390625,-0.2102508544921875,-0.831451416015625,-0.5252838134765625
1737751671137681400,5.049681396484375,-0.1849517822265625,-0.821258544921875,-0.54742431640625
1737751671147749400,5.059749267578125,-0.148895263671875,-0.877197265625,-0.5504608154296875
1737751671157817600,5.069817626953125,-0.102081298828125,-0.965087890625,-0.544891357421875
1737751671167886600,5.079886474609375,-0.0514373779296875,-1.0417327880859375,-0.53369140625
1737751671177954600,5.08995458984375,-0.0326080322265625,-1.075408935546875,-0.513824462890625
1737751671188022500,5.1000224609375,-0.046875,-1.0659027099609375,-0.4894866943359375
1737751671198090500,5.110090576171875,-0.0741119384765625,-1.0406646728515625,-0.4464263916015625
1737751671208158500,5.120158447265625,-0.1007080078125,-1.0076141357421875,-0.3684539794921875
1737751671218227700,5.130227783203125,-0.1103515625,-0.9602813720703125,-0.2681884765625
1737751671228295700,5.140295654296875,-0.113616943359375,-0.904266357421875,-0.17987060546875
1737751671238363400,5.15036328125,-0.140350341796875,-0.867340087890625,-0.143402099609375
1737751671248431400,5.160431396484375,-0.17431640625,-0.863311767578125,-0.1752166748046875
1737751671258499600,5.17049951171875,-0.1950225830078125,-0.872222900390625,-0.241943359375
1737751671268568600,5.180568603515625,-0.2063446044921875,-0.8630523681640625,-0.28277587890625
1737751671278636500,5.190636474609375,-0.2135467529296875,-0.85302734375,-0.297332763671875
1737751671288704500,5.20070458984375,-0.2263336181640625,-0.8611602783203125,-0.2964324951171875
1737751671298772500,5.2107724609375,-0.2439422607421875,-0.89508056640625,-0.288604736328125
1737751671308840400,5.22084033203125,-0.263671875,-0.9473876953125,-0.291046142578125
1737751671318909700,5.23090966796875,-0.2944488525390625,-0.99676513671875,-0.31890869140625
1737751671328977700,5.240977783203125,-0.3227081298828125,-1.0430908203125,-0.373992919921875
1737751671339045600,5.251045654296875,-0.3515625,-1.06707763671875,-0.4174957275390625
1737751671349113300,5.26111328125,-0.3751068115234375,-1.0507354736328125,-0.4416046142578125
1737751671359181600,5.271181640625,-0.382965087890625,-1.019683837890625,-0.451263427734375
1737751671369249500,5.28124951171875,-0.344970703125,-0.9661407470703125,-0.468017578125
1737751671379318500,5.291318603515625,-0.2508392333984375,-0.8962554931640625,-0.4924163818359375
1737751671389386500,5.301386474609375,-0.153076171875,-0.826507568359375,-0.5007781982421875
1737751671399454700,5.311454833984375,-0.099212646484375,-0.7704010009765625,-0.506927490234375
1737751671409522400,5.3215224609375,-0.0754241943359375,-0.74560546875,-0.5327301025390625
1737751671419590400,5.33159033203125,-0.0461578369140625,-0.725128173828125,-0.5728607177734375
1737751671429659600,5.34165966796875,-0.024169921875,-0.686553955078125,-0.5900115966796875
1737751671439727600,5.3517275390625,-0.0381011962890625,-0.64398193359375,-0.56268310546875
1737751671449795600,5.361795654296875,-0.0996856689453125,-0.62176513671875,-0.5149688720703125
1737751671459863600,5.371863525390625,-0.2008056640625,-0.62738037109375,-0.4629058837890625
1737751671469931500,5.381931640625,-0.2938995361328125,-0.6402130126953125,-0.4165802001953125
1737751671479999500,5.39199951171875,-0.361968994140625,-0.6466064453125,-0.38970947265625
1737751671490068500,5.402068359375,-0.4041900634765625,-0.65057373046875,-0.3908538818359375
1737751671500136700,5.41213671875,-0.38299560546875,-0.63983154296875,-0.4132080078125
1737751671510204700,5.42220458984375,-0.3547821044921875,-0.6151275634765625,-0.419281005859375
1737751671520272400,5.4322724609375,-0.3381195068359375,-0.6083984375,-0.403106689453125
1737751671530340400,5.44234033203125,-0.3152923583984375,-0.6350860595703125,-0.387359619140625
1737751671540409600,5.45240966796875,-0.2801513671875,-0.6782989501953125,-0.39434814453125
1737751671550477600,5.4624775390625,-0.2335968017578125,-0.7057952880859375,-0.42413330078125
1737751671560545500,5.472545654296875,-0.185546875,-0.696685791015625,-0.454071044921875
1737751671570613500,5.482613525390625,-0.1331787109375,-0.6635894775390625,-0.4747161865234375
1737751671580681500,5.492681396484375,-0.147735595703125,-0.626556396484375,-0.4611663818359375
1737751671590750500,5.50275048828125,-0.1895294189453125,-0.6177825927734375,-0.447998046875
1737751671600818700,5.512818603515625,-0.2161865234375,-0.611907958984375,-0.4462890625
1737751671610887200,5.52288720703125,-0.2566375732421875,-0.6104278564453125,-0.4286651611328125
1737751671620955000,5.532954833984375,-0.296966552734375,-0.6169281005859375,-0.4126739501953125
1737751671631022800,5.54302294921875,-0.343719482421875,-0.6338653564453125,-0.4132843017578125
1737751671641090800,5.5530908203125,-0.383453369140625,-0.6637115478515625,-0.4235076904296875
1737751671651160000,5.56316015625,-0.417327880859375,-0.702301025390625,-0.4422607421875
1737751671661228000,5.57322802734375,-0.441131591796875,-0.7401580810546875,-0.4581298828125
1737751671671296000,5.5832958984375,-0.4514312744140625,-0.777923583984375,-0.476165771484375
1737751671681364000,5.593364013671875,-0.4454193115234375,-0.793182373046875,-0.4877166748046875
1737751671691432000,5.603431884765625,-0.4268035888671875,-0.7705841064453125,-0.487884521484375
1737751671701501000,5.6135009765625,-0.40789794921875,-0.72796630859375,-0.479583740234375
1737751671711569000,5.62356884765625,-0.3821868896484375,-0.681427001953125,-0.4630279541015625
1737751671721637000,5.63363720703125,-0.3595123291015625,-0.65020751953125,-0.4521484375
1737751671731704800,5.643704833984375,-0.309661865234375,-0.64215087890625,-0.4640350341796875
1737751671741772800,5.653772705078125,-0.207122802734375,-0.6338348388671875,-0.4857635498046875
1737751671751842000,5.663842041015625,-0.134124755859375,-0.611602783203125,-0.500885009765625
1737751671761910000,5.673909912109375,-0.11224365234375,-0.592437744140625,-0.5084075927734375
1737751671771978000,5.68397802734375,-0.14117431640625,-0.5702667236328125,-0.5028076171875
1737751671782046000,5.6940458984375,-0.21575927734375,-0.5511016845703125,-0.4880523681640625
1737751671792114000,5.704114013671875,-0.3048858642578125,-0.54632568359375,-0.4693450927734375
1737751671802182000,5.714181884765625,-0.3778076171875,-0.5634002685546875,-0.45831298828125
1737751671812251000,5.7242509765625,-0.4186553955078125,-0.6069183349609375,-0.470550537109375
1737751671822319000,5.734319091796875,-0.42694091796875,-0.673919677734375,-0.5072021484375
1737751671832387000,5.744386962890625,-0.4098358154296875,-0.7612762451171875,-0.5568695068359375
1737751671842454800,5.754454833984375,-0.3849945068359375,-0.8747711181640625,-0.60589599609375
1737751671852522800,5.764522705078125,-0.359130859375,-1.010833740234375,-0.6391143798828125
1737751671862591000,5.774591064453125,-0.3404083251953125,-1.1401824951171875,-0.632476806640625
1737751671872660000,5.784659912109375,-0.324310302734375,-1.214111328125,-0.5743865966796875
1737751671882728000,5.79472802734375,-0.3137359619140625,-1.22021484375,-0.48114013671875
1737751671892796200,5.804796142578125,-0.312591552734375,-1.2093963623046875,-0.386810302734375
1737751671902864000,5.81486376953125,-0.3055419921875,-1.2325897216796875,-0.313232421875
1737751671912931800,5.824931884765625,-0.3053436279296875,-1.28741455078125,-0.2655181884765625
1737751671923001000,5.8350009765625,-0.3115234375,-1.3520965576171875,-0.2230072021484375
1737751671933069000,5.845069091796875,-0.31640625,-1.3778076171875,-0.1754913330078125
1737751671943137000,5.855136962890625,-0.33709716796875,-1.3527679443359375,-0.1326904296875
1737751671953205000,5.865205078125,-0.38043212890625,-1.307220458984375,-0.1063079833984375
1737751671963273000,5.87527294921875,-0.4132080078125,-1.263702392578125,-0.10833740234375
1737751671973341000,5.8853408203125,-0.441009521484375,-1.2278289794921875,-0.133087158203125
1737751671983410000,5.895409912109375,-0.4553680419921875,-1.2086639404296875,-0.168670654296875
1737751671993478100,5.90547802734375,-0.439910888671875,-1.19281005859375,-0.204010009765625
1737751672003546000,5.915546142578125,-0.39642333984375,-1.1604461669921875,-0.2362213134765625
1737751672013613800,5.92561376953125,-0.3459930419921875,-1.115203857421875,-0.2736358642578125
1737751672023681800,5.935681884765625,-0.3016357421875,-1.0702972412109375,-0.3115234375
1737751672033751000,5.9457509765625,-0.2668304443359375,-1.0235443115234375,-0.3408050537109375
1737751672043819000,5.955819091796875,-0.25213623046875,-0.9741363525390625,-0.3595428466796875
1737751672053887000,5.965886962890625,-0.240692138671875,-0.9308929443359375,-0.3594970703125
1737751672063955000,5.975954833984375,-0.2261199951171875,-0.8899383544921875,-0.3375701904296875
1737751672074023000,5.98602294921875,-0.2111663818359375,-0.8568572998046875,-0.3046722412109375
1737751672084091000,5.9960908203125,-0.189208984375,-0.830474853515625,-0.2739105224609375
1737751672094160000,6.006159912109375,-0.1733245849609375,-0.8060150146484375,-0.25982666015625
1737751672104228000,6.01622802734375,-0.1933441162109375,-0.8154449462890625,-0.2725067138671875
1737751672114296000,6.026296142578125,-0.2111663818359375,-0.8480377197265625,-0.295013427734375
1737751672124363800,6.03636376953125,-0.221771240234375,-0.8582305908203125,-0.2977447509765625
1737751672134431700,6.046431640625,-0.223907470703125,-0.8543853759765625,-0.2824249267578125
1737751672144501000,6.0565009765625,-0.1919708251953125,-0.867828369140625,-0.2852325439453125
1737751672154569000,6.06656884765625,-0.134307861328125,-0.8901824951171875,-0.3157196044921875
1737751672164637000,6.076636962890625,-0.091094970703125,-0.9090728759765625,-0.3608856201171875
1737751672174705200,6.086705078125,-0.083984375,-0.919342041015625,-0.4002227783203125
1737751672184772900,6.09677294921875,-0.09503173828125,-0.920318603515625,-0.43218994140625
1737751672194840800,6.1068408203125,-0.1117095947265625,-0.92340087890625,-0.4498138427734375
1737751672204910000,6.11691015625,-0.1262054443359375,-0.9280853271484375,-0.4488983154296875
1737751672214978000,6.12697802734375,-0.145416259765625,-0.9347686767578125,-0.43963623046875
1737751672225046000,6.1370458984375,-0.1616363525390625,-0.9517364501953125,-0.4326171875
1737751672235114000,6.147114013671875,-0.169189453125,-0.9748992919921875,-0.432708740234375
1737751672245182000,6.157181884765625,-0.1668853759765625,-0.98504638671875,-0.4256439208984375
1737751672255251000,6.1672509765625,-0.1657257080078125,-0.97412109375,-0.410064697265625
1737751672265319000,6.17731884765625,-0.17120361328125,-0.95550537109375,-0.390960693359375
1737751672275387100,6.18738720703125,-0.168212890625,-0.94158935546875,-0.37762451171875
1737751672285455000,6.197455078125,-0.1592254638671875,-0.9270172119140625,-0.3685455322265625
1737751672295522800,6.207522705078125,-0.142822265625,-0.9182586669921875,-0.3509521484375
1737751672305590800,6.2175908203125,-0.11334228515625,-0.9248199462890625,-0.3248748779296875
1737751672315660000,6.227659912109375,-0.0973052978515625,-0.9393157958984375,-0.294189453125
1737751672325728000,6.23772802734375,-0.0860137939453125,-0.9489898681640625,-0.269744873046875
1737751672335796000,6.2477958984375,-0.094268798828125,-0.9476318359375,-0.2566375732421875
1737751672345864000,6.257864013671875,-0.10003662109375,-0.943328857421875,-0.256805419921875
1737751672355932000,6.267931884765625,-0.1097259521484375,-0.938629150390625,-0.2592315673828125
1737751672365999900,6.277999755859375,-0.125152587890625,-0.9306793212890625,-0.2584381103515625
1737751672376068900,6.28806884765625,-0.1243133544921875,-0.9182891845703125,-0.2661590576171875
1737751672386137000,6.29813720703125,-0.1266937255859375,-0.8935394287109375,-0.27423095703125
1737751672396205000,6.308205078125,-0.1206817626953125,-0.8621826171875,-0.291259765625
1737751672406272800,6.318272705078125,-0.1172332763671875,-0.8393402099609375,-0.31549072265625
1737751672416341000,6.328341064453125,-0.1097259521484375,-0.8316802978515625,-0.342681884765625
1737751672426409000,6.338408935546875,-0.0850982666015625,-0.8349456787109375,-0.3713836669921875
1737751672436478000,6.34847802734375,-0.05419921875,-0.843902587890625,-0.4068450927734375
1737751672446546000,6.3585458984375,-0.0348663330078125,-0.8576202392578125,-0.4535064697265625
1737751672456614100,6.3686142578125,-0.025482177734375,-0.868682861328125,-0.4914703369140625
1737751672466681900,6.378681884765625,-0.012054443359375,-0.87933349609375,-0.5146331787109375
1737751672476749800,6.388749755859375,0.00323486328125,-0.881866455078125,-0.5205535888671875
1737751672486817800,6.39881787109375,0.0147857666015625,-0.8686065673828125,-0.5149383544921875
1737751672496887000,6.408886962890625,0.0243682861328125,-0.8502197265625,-0.5182647705078125
1737751672506955000,6.418955078125,0.0432891845703125,-0.840484619140625,-0.5398712158203125
1737751672517023000,6.42902294921875,0.0648956298828125,-0.8411712646484375,-0.5733184814453125
1737751672527091000,6.439091064453125,0.0742034912109375,-0.8495025634765625,-0.6080780029296875
1737751672537159000,6.449158935546875,0.0743408203125,-0.8636932373046875,-0.627471923828125
1737751672547228000,6.459227783203125,0.070037841796875,-0.8843841552734375,-0.6212615966796875
1737751672557296000,6.469296142578125,0.057708740234375,-0.89935302734375,-0.588409423828125
1737751672567364000,6.479364013671875,0.037017822265625,-0.9024810791015625,-0.5500946044921875
1737751672577431800,6.489431884765625,0.0113677978515625,-0.897796630859375,-0.5262298583984375
1737751672587499800,6.499499755859375,-0.0101318359375,-0.891082763671875,-0.52545166015625
1737751672597568000,6.509568115234375,-0.022735595703125,-0.8867645263671875,-0.5457000732421875
1737751672607637000,6.519636962890625,-0.024139404296875,-0.8855438232421875,-0.561767578125
1737751672617701000,6.529701171875,-0.0233001708984375,-0.8878021240234375,-0.56195068359375
1737751672627769000,6.53976904296875,-0.0240020751953125,-0.8881072998046875,-0.5402069091796875
1737751672637837000,6.549837158203125,-0.0350799560546875,-0.87774658203125,-0.5114898681640625
1737751672647905000,6.559905029296875,-0.0538330078125,-0.863189697265625,-0.4889984130859375
1737751672657973000,6.569972900390625,-0.0701141357421875,-0.855438232421875,-0.479583740234375
1737751672668042000,6.5800419921875,-0.0757904052734375,-0.8633270263671875,-0.4807586669921875
1737751672678110200,6.590110107421875,-0.0771942138671875,-0.8852386474609375,-0.4789276123046875
1737751672688178200,6.60017822265625,-0.0811767578125,-0.9090423583984375,-0.467987060546875
1737751672698246000,6.610245849609375,-0.094970703125,-0.9210357666015625,-0.4463653564453125
1737751672708313900,6.62031396484375,-0.11376953125,-0.9221038818359375,-0.4249267578125
1737751672718382000,6.630382080078125,-0.1293487548828125,-0.9242095947265625,-0.4197540283203125
1737751672728451000,6.640451171875,-0.1398773193359375,-0.9521026611328125,-0.4463348388671875
1737751672738519000,6.65051904296875,-0.15008544921875,-1.0189971923828125,-0.5004425048828125
1737751672748587000,6.6605869140625,-0.1778564453125,-1.0675506591796875,-0.5514373779296875
1737751672758655000,6.670655029296875,-0.2109832763671875,-1.0138702392578125,-0.58062744140625
1737751672768723000,6.680722900390625,-0.2360687255859375,-0.885284423828125,-0.5899200439453125
1737751672778791000,6.690791015625,-0.243682861328125,-0.7713470458984375,-0.5971527099609375
1737751672788860200,6.700860107421875,-0.2240142822265625,-0.7312469482421875,-0.6083831787109375
1737751672798928100,6.71092822265625,-0.1929473876953125,-0.757232666015625,-0.6024322509765625
1737751672808995800,6.720995849609375,-0.1638031005859375,-0.7889862060546875,-0.5625152587890625
1737751672819064000,6.73106396484375,-0.1427459716796875,-0.79364013671875,-0.5055389404296875
1737751672829132000,6.741132080078125,-0.133087158203125,-0.78485107421875,-0.4526214599609375
1737751672839200000,6.751199951171875,-0.1425933837890625,-0.7759246826171875,-0.4048614501953125
1737751672849269000,6.76126904296875,-0.168304443359375,-0.768646240234375,-0.3538055419921875
1737751672859337200,6.771337158203125,-0.1905364990234375,-0.7588958740234375,-0.3007659912109375
1737751672869405000,6.781405029296875,-0.2018280029296875,-0.757965087890625,-0.257843017578125
1737751672879473000,6.791472900390625,-0.2099456787109375,-0.765228271484375,-0.2341461181640625
1737751672889541000,6.801541015625,-0.2209625244140625,-0.7813720703125,-0.2410736083984375
1737751672899609000,6.811609130859375,-0.222747802734375,-0.8109283447265625,-0.2800445556640625
1737751672909678000,6.821677978515625,-0.2289581298828125,-0.839996337890625,-0.3384552001953125
1737751672919746000,6.83174609375,-0.240142822265625,-0.8542327880859375,-0.39501953125
1737751672929814000,6.84181396484375,-0.2470550537109375,-0.8478851318359375,-0.440185546875
1737751672939882000,6.851882080078125,-0.252899169921875,-0.830718994140625,-0.4809112548828125
1737751672949950000,6.861949951171875,-0.2612152099609375,-0.819580078125,-0.517303466796875
1737751672960019200,6.872019287109375,-0.2689208984375,-0.8223419189453125,-0.5517120361328125
1737751672970087200,6.882087158203125,-0.273101806640625,-0.8371429443359375,-0.5795440673828125
1737751672980155000,6.89215478515625,-0.27398681640625,-0.8516693115234375,-0.588470458984375
1737751672990222800,6.902222900390625,-0.2736053466796875,-0.857574462890625,-0.5782928466796875
1737751673000291000,6.912291015625,-0.27386474609375,-0.859161376953125,-0.55157470703125
1737751673010359000,6.922359130859375,-0.27764892578125,-0.8594512939453125,-0.5164337158203125
1737751673020428000,6.932427978515625,-0.282012939453125,-0.8631439208984375,-0.47540283203125
1737751673030496000,6.94249609375,-0.28558349609375,-0.8701171875,-0.433013916015625
1737751673040564000,6.95256396484375,-0.2884674072265625,-0.881683349609375,-0.3943023681640625
1737751673050632000,6.9626318359375,-0.295654296875,-0.894195556640625,-0.362091064453125
1737751673060700000,6.972699951171875,-0.300140380859375,-0.906219482421875,-0.34027099609375
1737751673070768000,6.98276806640625,-0.300994873046875,-0.914825439453125,-0.3290252685546875
1737751673080837000,6.992837158203125,-0.304962158203125,-0.921722412109375,-0.324981689453125
1737751673090904800,7.00290478515625,-0.30938720703125,-0.922821044921875,-0.329376220703125
1737751673100973000,7.01297314453125,-0.3171539306640625,-0.9136962890625,-0.3367919921875
1737751673111041000,7.023041015625,-0.32763671875,-0.8952789306640625,-0.3486785888671875
1737751673121109000,7.03310888671875,-0.341766357421875,-0.871429443359375,-0.367828369140625
1737751673131177000,7.043177001953125,-0.3537445068359375,-0.857757568359375,-0.3931121826171875
1737751673141246200,7.05324609375,-0.355499267578125,-0.859527587890625,-0.420135498046875
1737751673151314000,7.06331396484375,-0.3516082763671875,-0.86688232421875,-0.439208984375
1737751673161382000,7.0733818359375,-0.3474884033203125,-0.8689727783203125,-0.446929931640625
1737751673171450000,7.0834501953125,-0.3451690673828125,-0.859222412109375,-0.4399566650390625
1737751673181518000,7.09351806640625,-0.3458099365234375,-0.8403472900390625,-0.4239349365234375
1737751673191586000,7.1035859375,-0.342803955078125,-0.8186798095703125,-0.4039306640625
1737751673201655000,7.113655029296875,-0.339324951171875,-0.7946929931640625,-0.3807220458984375
1737751673211723000,7.123722900390625,-0.3376922607421875,-0.7604217529296875,-0.353607177734375
1737751673221791000,7.133791015625,-0.3353271484375,-0.715789794921875,-0.3228607177734375
1737751673231859000,7.14385888671875,-0.32855224609375,-0.665283203125,-0.2942047119140625
1737751673241927200,7.15392724609375,-0.323150634765625,-0.625946044921875,-0.2725830078125
1737751673251995100,7.1639951171875,-0.3035125732421875,-0.611236572265625,-0.2612762451171875
1737751673262063900,7.17406396484375,-0.2668609619140625,-0.645904541015625,-0.264617919921875
1737751673272131800,7.1841318359375,-0.2097015380859375,-0.74755859375,-0.2921295166015625
1737751673282200000,7.194199951171875,-0.1390380859375,-0.897308349609375,-0.32415771484375
1737751673292268000,7.20426806640625,-0.1103057861328125,-1.026885986328125,-0.342529296875
1737751673302336000,7.2143359375,-0.1061553955078125,-1.06744384765625,-0.3399658203125
1737751673312404000,7.224404052734375,-0.1295013427734375,-1.00048828125,-0.304229736328125
1737751673322472200,7.23447216796875,-0.167999267578125,-0.873992919921875,-0.265228271484375
1737751673332541000,7.244541015625,-0.196136474609375,-0.7812347412109375,-0.2438812255859375
1737751673342609000,7.25460888671875,-0.2172698974609375,-0.7729644775390625,-0.246185302734375
1737751673352677000,7.264677001953125,-0.227874755859375,-0.8465423583984375,-0.2789764404296875
1737751673362745000,7.2747451171875,-0.22662353515625,-0.95281982421875,-0.3265380859375
1737751673372813000,7.28481298828125,-0.2264862060546875,-1.031951904296875,-0.3696746826171875
1737751673382881000,7.294881103515625,-0.2295074462890625,-1.0615692138671875,-0.4106292724609375
1737751673392950000,7.304949951171875,-0.2416229248046875,-1.0541229248046875,-0.4448394775390625
1737751673403018000,7.31501806640625,-0.260955810546875,-1.0277099609375,-0.4622344970703125
1737751673413086000,7.3250859375,-0.270660400390625,-0.9929351806640625,-0.4638824462890625
1737751673423154200,7.335154296875,-0.261993408203125,-0.9649505615234375,-0.4553680419921875
1737751673433222100,7.34522216796875,-0.2443389892578125,-0.9454345703125,-0.448333740234375
1737751673443290000,7.3552900390625,-0.2309417724609375,-0.9329376220703125,-0.441497802734375
1737751673453359000,7.365359130859375,-0.21746826171875,-0.925445556640625,-0.431549072265625
1737751673463427000,7.375427001953125,-0.2063446044921875,-0.928070068359375,-0.4169158935546875
1737751673473495000,7.3854951171875,-0.19921875,-0.9319000244140625,-0.39990234375
1737751673483563000,7.39556298828125,-0.19970703125,-0.9207000732421875,-0.385955810546875
1737751673493631200,7.40563134765625,-0.205963134765625,-0.888580322265625,-0.3704376220703125
1737751673503699000,7.415698974609375,-0.207550048828125,-0.8502197265625,-0.35589599609375
1737751673513768000,7.425767822265625,-0.199462890625,-0.8252105712890625,-0.3451690673828125
1737751673523836200,7.435836181640625,-0.1745147705078125,-0.8218994140625,-0.34136962890625
1737751673533904100,7.445904052734375,-0.1374053955078125,-0.839599609375,-0.3469390869140625
1737751673543972000,7.45597216796875,-0.0985870361328125,-0.8712310791015625,-0.3679962158203125
1737751673554040000,7.4660400390625,-0.0694427490234375,-0.8977203369140625,-0.3909759521484375
1737751673564108000,7.47610791015625,-0.04901123046875,-0.9136505126953125,-0.410430908203125
1737751673574177000,7.486177001953125,-0.03497314453125,-0.921630859375,-0.4262237548828125
1737751673584245000,7.496244873046875,-0.02276611328125,-0.919464111328125,-0.4358062744140625
1737751673594313200,7.506313232421875,-0.01495361328125,-0.9159698486328125,-0.4327392578125
1737751673604381200,7.516381103515625,-0.0163726806640625,-0.9122772216796875,-0.4207305908203125
1737751673614449400,7.526449462890625,-0.0222625732421875,-0.9034271240234375,-0.4034271240234375
1737751673624517400,7.536517333984375,-0.035247802734375,-0.8793792724609375,-0.37628173828125
1737751673634585300,7.54658544921875,-0.05609130859375,-0.84173583984375,-0.34197998046875
1737751673644654600,7.556654541015625,-0.0795440673828125,-0.8034515380859375,-0.303680419921875
1737751673654722600,7.56672265625,-0.1082000732421875,-0.7799224853515625,-0.263458251953125
1737751673664790300,7.576790283203125,-0.1345062255859375,-0.7612762451171875,-0.21685791015625
1737751673674858200,7.586858154296875,-0.1571197509765625,-0.7359466552734375,-0.17083740234375
1737751673684926500,7.596926513671875,-0.180328369140625,-0.695648193359375,-0.1312103271484375
1737751673694994400,7.606994384765625,-0.211151123046875,-0.646514892578125,-0.1029815673828125
1737751673705063400,7.6170634765625,-0.2375030517578125,-0.5968475341796875,-0.08099365234375
1737751673715131600,7.627131591796875,-0.2567596435546875,-0.5537109375,-0.0702056884765625
1737751673725199400,7.637199462890625,-0.2767486572265625,-0.522613525390625,-0.0707550048828125
1737751673735267300,7.647267333984375,-0.30157470703125,-0.5004730224609375,-0.0829315185546875
1737751673745335300,7.657335205078125,-0.327728271484375,-0.47430419921875,-0.0942230224609375
1737751673755403500,7.667403564453125,-0.3497314453125,-0.4505462646484375,-0.098388671875
1737751673765472500,7.677472412109375,-0.35614013671875,-0.454376220703125,-0.0899505615234375
1737751673775540200,7.687540283203125,-0.3527069091796875,-0.4955291748046875,-0.0734100341796875
1737751673785608400,7.6976083984375,-0.3342132568359375,-0.5712890625,-0.06280517578125
1737751673795676400,7.707676513671875,-0.30694580078125,-0.6695556640625,-0.06689453125
1737751673805744400,7.717744384765625,-0.277313232421875,-0.771636962890625,-0.0886688232421875
1737751673815812400,7.727812255859375,-0.256439208984375,-0.852691650390625,-0.1220550537109375
1737751673825880600,7.737880615234375,-0.2452850341796875,-0.8993682861328125,-0.1567840576171875
1737751673835949300,7.74794921875,-0.2567138671875,-0.913238525390625,-0.1778717041015625
1737751673846017300,7.758017333984375,-0.2896575927734375,-0.915130615234375,-0.18548583984375
1737751673856085500,7.76808544921875,-0.3399200439453125,-0.9225921630859375,-0.1953277587890625
1737751673866153500,7.778153564453125,-0.3890533447265625,-0.9304962158203125,-0.213531494140625
1737751673876221400,7.788221435546875,-0.428131103515625,-0.9327239990234375,-0.2428436279296875
1737751673886289400,7.798289306640625,-0.45477294921875,-0.93658447265625,-0.271881103515625
1737751673896358400,7.8083583984375,-0.4875030517578125,-0.9483184814453125,-0.2925262451171875
1737751673906426400,7.81842626953125,-0.5306854248046875,-0.9588623046875,-0.29974365234375
1737751673916494300,7.828494384765625,-0.578826904296875,-0.9477386474609375,-0.2822418212890625
1737751673926562600,7.8385625,-0.6362762451171875,-0.926239013671875,-0.2558135986328125
1737751673936630500,7.848630615234375,-0.6838226318359375,-0.93670654296875,-0.239227294921875
1737751673946698500,7.858698486328125,-0.725311279296875,-0.9964599609375,-0.2334747314453125
1737751673956766500,7.868766357421875,-0.755096435546875,-1.0867919921875,-0.2198944091796875
1737751673966835500,7.87883544921875,-0.77471923828125,-1.1565399169921875,-0.1851959228515625
1737751673976903400,7.8889033203125,-0.7735443115234375,-1.1901397705078125,-0.137176513671875
1737751673986971400,7.898971435546875,-0.7466278076171875,-1.2044677734375,-0.0971221923828125
1737751673997039600,7.90903955078125,-0.6992034912109375,-1.2069549560546875,-0.098175048828125
1737751674007107600,7.919107666015625,-0.6643218994140625,-1.2089691162109375,-0.1313629150390625
1737751674017175600,7.929175537109375,-0.628204345703125,-1.205780029296875,-0.1534271240234375
1737751674027243300,7.9392431640625,-0.5986175537109375,-1.17425537109375,-0.136077880859375
1737751674037312500,7.9493125,-0.56829833984375,-1.14007568359375,-0.0694580078125
1737751674047380500,7.95938037109375,-0.5294036865234375,-1.1221923828125,0.01513671875
1737751674057448400,7.969448486328125,-0.504791259765625,-1.09686279296875,0.09136962890625
1737751674067516700,7.9795166015625,-0.52520751953125,-1.048370361328125,0.1295318603515625
1737751674077584400,7.98958447265625,-0.538421630859375,-0.9613800048828125,0.1089630126953125
1737751674087652400,7.99965234375,-0.532318115234375,-0.8574066162109375,0.0645599365234375
1737751674097720300,8.00972021484375,-0.5129241943359375,-0.7871856689453125,0.024566650390625
1737751674107789600,8.01978955078125,-0.4690704345703125,-0.7502899169921875,0.0152740478515625
1737751674117857500,8.029857421875,-0.45184326171875,-0.7374420166015625,0.016387939453125
1737751674127925500,8.039925537109376,-0.448974609375,-0.741607666015625,0.0144805908203125
1737751674137993200,8.0499931640625,-0.4446563720703125,-0.76861572265625,-0.0259552001953125
1737751674148061400,8.0600615234375,-0.43548583984375,-0.7910003662109375,-0.1061553955078125
1737751674158129400,8.07012939453125,-0.420074462890625,-0.797760009765625,-0.212371826171875
1737751674168198400,8.080198486328126,-0.37939453125,-0.781219482421875,-0.3328094482421875
1737751674178266600,8.0902666015625,-0.32080078125,-0.7615509033203125,-0.4226226806640625
1737751674188334600,8.10033447265625,-0.27301025390625,-0.7671356201171875,-0.4630279541015625
1737751674198402300,8.11040234375,-0.251922607421875,-0.796142578125,-0.477996826171875
1737751674208470300,8.12047021484375,-0.2642364501953125,-0.804412841796875,-0.46044921875
1737751674218538500,8.13053857421875,-0.2961883544921875,-0.7921142578125,-0.4329376220703125
1737751674228606500,8.1406064453125,-0.32708740234375,-0.7606048583984375,-0.4078826904296875
1737751674238675500,8.150675537109375,-0.33270263671875,-0.7204437255859375,-0.3930816650390625
1737751674248743400,8.160743408203125,-0.325592041015625,-0.69342041015625,-0.38653564453125
1737751674258811400,8.170811279296874,-0.3190460205078125,-0.6902313232421875,-0.37994384765625
1737751674268879400,8.18087939453125,-0.3099365234375,-0.7037506103515625,-0.3744354248046875
1737751674278947300,8.190947265625,-0.305816650390625,-0.71875,-0.37249755859375
1737751674289015600,8.201015625,-0.302886962890625,-0.7273712158203125,-0.3825836181640625
1737751674299083500,8.21108349609375,-0.2969512939453125,-0.719573974609375,-0.392822265625
1737751674309152300,8.22115234375,-0.2984619140625,-0.6932220458984375,-0.3967437744140625
1737751674319220500,8.231220458984374,-0.3069915771484375,-0.6748809814453125,-0.396331787109375
1737751674329288400,8.241288330078126,-0.3068389892578125,-0.6726837158203125,-0.382843017578125
1737751674339356400,8.2513564453125,-0.3073883056640625,-0.6821136474609375,-0.3640594482421875
1737751674349424400,8.26142431640625,-0.30792236328125,-0.6999664306640625,-0.361236572265625
1737751674359492600,8.27149267578125,-0.3112335205078125,-0.72259521484375,-0.38134765625
1737751674369561300,8.281561279296875,-0.3117828369140625,-0.7566680908203125,-0.4222412109375
1737751674379629300,8.29162939453125,-0.32452392578125,-0.7979583740234375,-0.471649169921875
1737751674389697500,8.301697509765624,-0.37603759765625,-0.852203369140625,-0.5225067138671875
1737751674399765500,8.311765625,-0.438720703125,-0.9781951904296875,-0.5467529296875
1737751674409833500,8.32183349609375,-0.4660491943359375,-1.2126617431640625,-0.498504638671875
1737751674419901400,8.3319013671875,-0.4637451171875,-1.4663543701171875,-0.3779144287109375
1737751674429969700,8.3419697265625,-0.4999237060546875,-1.6287689208984375,-0.226226806640625
1737751674440038400,8.352038330078125,-0.590423583984375,-1.6310272216796875,-0.0667266845703125
1737751674450106400,8.3621064453125,-0.6884613037109375,-1.5334014892578125,0.05975341796875
1737751674460174600,8.372174560546876,-0.74200439453125,-1.47216796875,0.1517486572265625
1737751674470242600,8.38224267578125,-0.7369842529296875,-1.4994659423828125,0.232574462890625
1737751674480310500,8.392310546875,-0.711578369140625,-1.5369720458984375,0.2984619140625
1737751674490378500,8.40237841796875,-0.7324981689453125,-1.5431060791015625,0.3659210205078125
1737751674500446500,8.412446533203125,-0.7496185302734375,-1.4936065673828125,0.4362640380859375
1737751674510515500,8.422515380859375,-0.778656005859375,-1.4028472900390625,0.4791107177734375
1737751674520583400,8.43258349609375,-0.7906951904296875,-1.2990875244140625,0.488983154296875
1737751674530651400,8.4426513671875,-0.7772369384765625,-1.1956024169921875,0.4640960693359375
1737751674540719600,8.4527197265625,-0.7448272705078125,-1.100067138671875,0.4022369384765625
1737751674550787300,8.462787353515624,-0.68792724609375,-1.0293731689453125,0.3179168701171875
1737751674560855300,8.472855224609376,-0.616973876953125,-0.993316650390625,0.2220611572265625
1737751674570923500,8.482923583984375,-0.5432891845703125,-0.991668701171875,0.1288299560546875
1737751674580992500,8.492992431640625,-0.4822845458984375,-1.0068511962890625,0.0538177490234375
1737751674591060500,8.503060546875,-0.441253662109375,-1.027862548828125,-0.002105712890625
1737751674601128400,8.51312841796875,-0.4161834716796875,-1.0423736572265625,-0.036651611328125
1737751674611196000,8.52319580078125,-0.4010009765625,-1.0467529296875,-0.0531768798828125
1737751674621263600,8.533263671875,-0.393463134765625,-1.0435028076171875,-0.0596771240234375
1737751674631331600,8.54333154296875,-0.390411376953125,-1.03802490234375,-0.052703857421875
1737751674641400800,8.55340087890625,-0.3921051025390625,-1.0300140380859375,-0.048736572265625
1737751674651468800,8.56346875,-0.394866943359375,-1.0258331298828125,-0.0527191162109375
1737751674661536800,8.573536865234376,-0.397979736328125,-1.031036376953125,-0.066131591796875
1737751674671604700,8.583604736328125,-0.4129638671875,-1.0379486083984375,-0.0858306884765625
1737751674681672700,8.593672607421874,-0.4321746826171875,-1.0347900390625,-0.097442626953125
1737751674691740700,8.60374072265625,-0.45947265625,-1.0350341796875,-0.0924530029296875
1737751674701808600,8.61380859375,-0.4865570068359375,-1.0633544921875,-0.08355712890625
1737751674711877600,8.623877685546875,-0.5167999267578125,-1.1143951416015625,-0.0762176513671875
1737751674721945900,8.63394580078125,-0.5547332763671875,-1.1708526611328125,-0.081207275390625
1737751674732013800,8.644013916015625,-0.5926971435546875,-1.2087554931640625,-0.0967864990234375
1737751674742081500,8.65408154296875,-0.61474609375,-1.21099853515625,-0.1211700439453125
1737751674752149500,8.6641494140625,-0.6463623046875,-1.1994171142578125,-0.148193359375
1737751674762217700,8.6742177734375,-0.6758575439453125,-1.1902008056640625,-0.1756744384765625
1737751674772285700,8.68428564453125,-0.6894683837890625,-1.1811065673828125,-0.2011566162109375
1737751674782354700,8.694354736328124,-0.691009521484375,-1.188446044921875,-0.207000732421875
1737751674792422700,8.704422607421876,-0.670257568359375,-1.189117431640625,-0.18487548828125
1737751674802490600,8.71449072265625,-0.6279296875,-1.1864013671875,-0.1520538330078125
1737751674812558600,8.72455859375,-0.579803466796875,-1.1996002197265625,-0.1142425537109375
1737751674822626600,8.73462646484375,-0.5388641357421875,-1.221282958984375,-0.0682525634765625
1737751674832694800,8.74469482421875,-0.499908447265625,-1.21661376953125,-0.0134735107421875
1737751674842763800,8.754763671875,-0.468780517578125,-1.1736297607421875,0.0469512939453125
1737751674852831500,8.76483154296875,-0.4417572021484375,-1.10211181640625,0.1035003662109375
1737751674862899700,8.774899658203125,-0.405517578125,-1.020477294921875,0.1544189453125
1737751674872967700,8.7849677734375,-0.378143310546875,-0.9382171630859375,0.2018585205078125
1737751674883035600,8.79503564453125,-0.3700408935546875,-0.8642120361328125,0.229339599609375
1737751674893103600,8.805103515625,-0.368804931640625,-0.7936248779296875,0.2333831787109375
1737751674903171800,8.815171875,-0.3523101806640625,-0.73516845703125,0.2130126953125
1737751674913239800,8.82523974609375,-0.33953857421875,-0.690765380859375,0.1709747314453125
1737751674923308500,8.83530859375,-0.33349609375,-0.6418609619140625,0.11126708984375
1737751674933376800,8.845376708984375,-0.3240509033203125,-0.5814208984375,0.042236328125
1737751674943444700,8.85544482421875,-0.2879638671875,-0.511322021484375,-0.0237884521484375
1737751674953512700,8.8655126953125,-0.24658203125,-0.4481201171875,-0.076904296875
1737751674963580700,8.87558056640625,-0.217803955078125,-0.3980255126953125,-0.1246795654296875
1737751674973649000,8.88564892578125,-0.1945037841796875,-0.3742218017578125,-0.172393798828125
1737751674983717600,8.895717529296874,-0.18682861328125,-0.3862762451171875,-0.2283782958984375
1737751674993785600,8.90578564453125,-0.1862335205078125,-0.4149322509765625,-0.283721923828125
1737751675003853800,8.915853759765625,-0.199462890625,-0.4357452392578125,-0.327484130859375
1737751675013921800,8.925921875,-0.2187957763671875,-0.449951171875,-0.3628692626953125
1737751675023989800,8.93598974609375,-0.2436065673828125,-0.460113525390625,-0.3750762939453125
1737751675034057700,8.9460576171875,-0.2688446044921875,-0.4722137451171875,-0.3542633056640625
1737751675044125700,8.956125732421874,-0.2724609375,-0.4860076904296875,-0.3010101318359375
1737751675054194700,8.966194580078126,-0.2816925048828125,-0.4986724853515625,-0.2252960205078125
1737751675064262700,8.9762626953125,-0.2671966552734375,-0.51055908203125,-0.144805908203125
1737751675074331000,8.986330810546875,-0.236541748046875,-0.5235748291015625,-0.0792236328125
1737751675084398800,8.99639892578125,-0.208953857421875,-0.5517120361328125,-0.038177490234375
1737751675094466600,9.006466552734375,-0.1859283447265625,-0.5989532470703125,-0.0100860595703125
1737751675104534500,9.016534423828125,-0.180999755859375,-0.66217041015625,0.0042266845703125
1737751675114602800,9.026602783203124,-0.1822509765625,-0.738983154296875,0.01495361328125
1737751675124671700,9.036671630859376,-0.203765869140625,-0.8066253662109375,0.022491455078125
1737751675134739700,9.04673974609375,-0.24542236328125,-0.8593902587890625,0.0239410400390625
1737751675144808000,9.056807861328124,-0.28924560546875,-0.87994384765625,0.013702392578125
1737751675154875600,9.066875732421876,-0.3328399658203125,-0.8659210205078125,-0.0249481201171875
1737751675164943600,9.076943603515625,-0.3531494140625,-0.83026123046875,-0.0918426513671875
1737751675175011600,9.087011474609374,-0.3421783447265625,-0.7719573974609375,-0.1810455322265625
1737751675185079800,9.097079833984376,-0.3230133056640625,-0.7028350830078125,-0.290130615234375
1737751675195148800,9.107148681640625,-0.31768798828125,-0.6522064208984375,-0.401397705078125
1737751675205216800,9.117216796875,-0.37646484375,-0.6642913818359375,-0.4993133544921875
1737751675215284500,9.127284423828126,-0.4358978271484375,-0.811279296875,-0.5647125244140625
1737751675225352700,9.137352783203125,-0.457611083984375,-1.12579345703125,-0.6145782470703125
1737751675235420700,9.147420654296875,-0.44354248046875,-1.4459228515625,-0.64715576171875
1737751675245488600,9.157488525390624,-0.4538421630859375,-1.5640716552734375,-0.671112060546875
1737751675255556600,9.167556640625,-0.4656829833984375,-1.4149932861328125,-0.7837371826171875
1737751675265625600,9.17762548828125,-0.4727783203125,-1.0853271484375,-0.97857666015625
1737751675275693600,9.187693603515624,-0.478668212890625,-0.76531982421875,-1.159088134765625
1737751675285761500,9.197761474609376,-0.482574462890625,-0.557769775390625,-1.2932586669921875
1737751675295829800,9.207829833984375,-0.5288238525390625,-0.4622039794921875,-1.3771209716796875
1737751675305897700,9.217897705078125,-0.599212646484375,-0.49053955078125,-1.3587188720703125
1737751675315965700,9.227965576171876,-0.6284332275390625,-0.5868988037109375,-1.2104034423828125
1737751675326034700,9.23803466796875,-0.6399688720703125,-0.637054443359375,-0.977813720703125
1737751675336102700,9.2481025390625,-0.6629638671875,-0.631439208984375,-0.7547760009765625
1737751675346170600,9.258170654296874,-0.672637939453125,-0.6250152587890625,-0.590118408203125
1737751675356238600,9.268238525390625,-0.650299072265625,-0.6324005126953125,-0.4789276123046875
1737751675366306800,9.278306884765625,-0.5999298095703125,-0.6441192626953125,-0.413604736328125
1737751675376374800,9.288374755859374,-0.5296478271484375,-0.6313323974609375,-0.3899383544921875
1737751675386442800,9.29844287109375,-0.4590301513671875,-0.5980682373046875,-0.3966827392578125
1737751675396511700,9.30851171875,-0.4185028076171875,-0.5621490478515625,-0.385498046875
1737751675406579700,9.318579833984375,-0.388671875,-0.5381317138671875,-0.3497161865234375
1737751675416647700,9.328647705078126,-0.3711700439453125,-0.5396728515625,-0.297119140625
1737751675426715600,9.338715576171875,-0.3827667236328125,-0.5819549560546875,-0.2144622802734375
1737751675436783900,9.348783935546875,-0.4225006103515625,-0.651275634765625,-0.11163330078125
1737751675446851800,9.358851806640626,-0.481536865234375,-0.7085418701171875,-0.015045166015625
1737751675456919600,9.36891943359375,-0.5442962646484375,-0.7247467041015625,0.0515899658203125
1737751675466988800,9.37898876953125,-0.5893402099609375,-0.70635986328125,0.07183837890625
1737751675477056800,9.389056884765624,-0.618438720703125,-0.6916961669921875,0.054168701171875
1737751675487124700,9.399124755859376,-0.644317626953125,-0.696533203125,0.0220794677734375
1737751675497192700,9.409192626953125,-0.679229736328125,-0.704620361328125,-0.0196533203125
1737751675507260700,9.4192607421875,-0.7109375,-0.7038421630859375,-0.07354736328125
1737751675517328600,9.42932861328125,-0.7273712158203125,-0.7072296142578125,-0.143829345703125
1737751675527397600,9.439397705078125,-0.7257537841796875,-0.73388671875,-0.2265777587890625
1737751675537465900,9.4494658203125,-0.7238311767578125,-0.7664337158203125,-0.3079986572265625
1737751675547533800,9.459533935546874,-0.729736328125,-0.7847137451171875,-0.3691558837890625
1737751675557601800,9.469601806640625,-0.7268218994140625,-0.79510498046875,-0.3951416015625
1737751675567669500,9.47966943359375,-0.716400146484375,-0.8083343505859375,-0.3899688720703125
1737751675577737700,9.48973779296875,-0.7025604248046875,-0.81805419921875,-0.368865966796875
1737751675587805700,9.4998056640625,-0.6851806640625,-0.8199615478515625,-0.343170166015625
1737751675597874700,9.509874755859375,-0.66729736328125,-0.81329345703125,-0.33087158203125
1737751675607942700,9.519942626953124,-0.65625,-0.791961669921875,-0.3388214111328125
1737751675618014200,9.53001416015625,-0.6505584716796875,-0.763702392578125,-0.36480712890625
1737751675628082000,9.54008203125,-0.6466827392578125,-0.740234375,-0.3983306884765625
1737751675638150000,9.55014990234375,-0.6424407958984375,-0.7246856689453125,-0.4257659912109375
1737751675648217900,9.5602177734375,-0.6282958984375,-0.71612548828125,-0.42950439453125
1737751675658287000,9.570287109375,-0.6197052001953125,-0.70343017578125,-0.4119110107421875
1737751675668355000,9.58035498046875,-0.629058837890625,-0.666046142578125,-0.3790130615234375
1737751675678423000,9.590423095703125,-0.64984130859375,-0.6124114990234375,-0.3253631591796875
1737751675688491000,9.600490966796874,-0.6764984130859375,-0.561767578125,-0.2554473876953125
1737751675698559000,9.61055908203125,-0.7027587890625,-0.5176239013671875,-0.173828125
1737751675708627000,9.620626953125,-0.7211151123046875,-0.4862213134765625,-0.0834197998046875
1737751675718695000,9.63069482421875,-0.737060546875,-0.4712677001953125,0.0003814697265625
1737751675728764200,9.64076416015625,-0.7340850830078125,-0.478424072265625,0.06842041015625
1737751675738832000,9.650831787109375,-0.7101287841796875,-0.502044677734375,0.113128662109375
1737751675748899800,9.66089990234375,-0.6767425537109375,-0.5177001953125,0.1291351318359375
1737751675758968000,9.670968017578126,-0.6478424072265625,-0.52386474609375,0.1141357421875
1737751675769036000,9.6810361328125,-0.620941162109375,-0.537109375,0.08154296875
1737751675779104000,9.69110400390625,-0.6045074462890625,-0.56610107421875,0.040313720703125
1737751675789173200,9.70117333984375,-0.5970916748046875,-0.60614013671875,0.007049560546875
1737751675799241000,9.711240966796876,-0.5964202880859375,-0.6422882080078125,-0.01690673828125
1737751675809309000,9.721308837890625,-0.6014862060546875,-0.6728973388671875,-0.0229644775390625
1737751675819377000,9.731376953125,-0.61151123046875,-0.7112579345703125,-0.0133514404296875
1737751675829445000,9.741445068359376,-0.629486083984375,-0.751678466796875,-0.0084381103515625
1737751675839513000,9.75151318359375,-0.655731201171875,-0.7845001220703125,-0.0090484619140625
1737751675849581000,9.7615810546875,-0.6766510009765625,-0.7982635498046875,-0.0197601318359375
1737751675859650000,9.771650146484374,-0.69500732421875,-0.7971343994140625,-0.0409698486328125
1737751675869718000,9.781718017578125,-0.70556640625,-0.7935791015625,-0.066741943359375
1737751675879786000,9.791785888671875,-0.7016754150390625,-0.7860107421875,-0.086334228515625
1737751675889854000,9.80185400390625,-0.7010345458984375,-0.774444580078125,-0.097320556640625
1737751675899922200,9.811922119140625,-0.710174560546875,-0.757110595703125,-0.1040191650390625
1737751675909990100,9.821990234375,-0.71710205078125,-0.742095947265625,-0.10516357421875
1737751675920058000,9.83205810546875,-0.715484619140625,-0.7403564453125,-0.108184814453125
1737751675930127000,9.842127197265626,-0.7020111083984375,-0.75140380859375,-0.105255126953125
1737751675940195000,9.852195068359375,-0.6840057373046875,-0.7608489990234375,-0.0957183837890625
1737751675950263000,9.862262939453124,-0.6752166748046875,-0.7587432861328125,-0.09619140625
1737751675960331000,9.8723310546875,-0.66265869140625,-0.7501068115234375,-0.093353271484375
1737751675970399200,9.882399169921875,-0.6357879638671875,-0.749603271484375,-0.090911865234375
1737751675980467200,9.89246728515625,-0.5975189208984375,-0.7759857177734375,-0.10211181640625
1737751675990536000,9.902535888671874,-0.5581512451171875,-0.831298828125,-0.126220703125
1737751676000604000,9.91260400390625,-0.518524169921875,-0.9170989990234375,-0.1546173095703125
1737751676010672000,9.922672119140625,-0.477447509765625,-1.0317535400390625,-0.1947784423828125
1737751676020740000,9.932739990234374,-0.4463958740234375,-1.1338958740234375,-0.24371337890625
1737751676030808000,9.94280810546875,-0.4418487548828125,-1.1753997802734375,-0.2743072509765625
1737751676040876000,9.9528759765625,-0.463470458984375,-1.1326141357421875,-0.279998779296875
1737751676050944000,9.962944091796874,-0.504241943359375,-1.041656494140625,-0.27020263671875
1737751676061013000,9.973012939453126,-0.5472869873046875,-0.9632110595703125,-0.2473297119140625
1737751676071081000,9.9830810546875,-0.5742950439453125,-0.91900634765625,-0.2020111083984375
1737751676081149200,9.993149169921875,-0.5903167724609375,-0.9018402099609375,-0.140533447265625
1737751676091217200,10.003217041015626,-0.6059722900390625,-0.904144287109375,-0.08148193359375
1737751676101284900,10.013284912109375,-0.6167144775390625,-0.90631103515625,-0.0342864990234375
1737751676111352800,10.023352783203125,-0.6189727783203125,-0.8958740234375,-0.009674072265625
1737751676121422000,10.033422119140624,-0.6201171875,-0.8741455078125,-0.01226806640625
1737751676131490000,10.043489990234375,-0.619110107421875,-0.8468780517578125,-0.02874755859375
1737751676141558000,10.05355810546875,-0.60845947265625,-0.816009521484375,-0.0452117919921875
1737751676151626000,10.0636259765625,-0.5874786376953125,-0.7939453125,-0.056365966796875
1737751676161694000,10.07369384765625,-0.5606842041015625,-0.776092529296875,-0.0694122314453125
1737751676171762000,10.083761962890625,-0.532928466796875,-0.7486114501953125,-0.0831146240234375
1737751676181830000,10.093829833984374,-0.5112457275390625,-0.7151947021484375,-0.0949859619140625
1737751676191899100,10.103899169921876,-0.4970703125,-0.6887054443359375,-0.1105804443359375
1737751676201967000,10.113967041015625,-0.4953460693359375,-0.6758880615234375,-0.129180908203125
1737751676212034800,10.124034912109375,-0.4975128173828125,-0.677398681640625,-0.150146484375
1737751676222103000,10.13410302734375,-0.4975128173828125,-0.6917724609375,-0.1725006103515625
1737751676232171000,10.1441708984375,-0.4921875,-0.71368408203125,-0.192047119140625
1737751676242239000,10.154239013671875,-0.479278564453125,-0.7390594482421875,-0.206298828125
1737751676252307000,10.164306884765624,-0.468597412109375,-0.771820068359375,-0.2193450927734375
1737751676262376200,10.174376220703126,-0.4651336669921875,-0.80712890625,-0.234527587890625
1737751676272444000,10.18444384765625,-0.46759033203125,-0.837432861328125,-0.2493438720703125
1737751676282512000,10.194511962890624,-0.470184326171875,-0.86505126953125,-0.2670745849609375
1737751676292580000,10.204580078125,-0.469207763671875,-0.8886566162109375,-0.278472900390625
1737751676302648000,10.21464794921875,-0.469482421875,-0.9060821533203125,-0.2803497314453125
1737751676312716000,10.224716064453125,-0.4726104736328125,-0.92657470703125,-0.2694091796875
1737751676322785000,10.234784912109374,-0.473968505859375,-0.9587554931640625,-0.247955322265625
1737751676332853000,10.24485302734375,-0.472381591796875,-0.9902801513671875,-0.2210235595703125
1737751676342921000,10.2549208984375,-0.4649200439453125,-1.02337646484375,-0.1987762451171875
1737751676352989000,10.264989013671874,-0.459381103515625,-1.0545654296875,-0.1712493896484375
1737751676363057200,10.27505712890625,-0.463958740234375,-1.072174072265625,-0.1352691650390625
1737751676373125000,10.285125,-0.47283935546875,-1.0780792236328125,-0.09674072265625
1737751676383193000,10.295193115234374,-0.4787139892578125,-1.0772705078125,-0.0575408935546875
1737751676393262000,10.305261962890626,-0.4747467041015625,-1.0760345458984375,-0.031585693359375
1737751676403330000,10.315330078125,-0.454833984375,-1.071197509765625,-0.0235748291015625
1737751676413398000,10.32539794921875,-0.4238433837890625,-1.055023193359375,-0.0301361083984375
1737751676423466000,10.335466064453126,-0.3952789306640625,-1.023956298828125,-0.0445404052734375
1737751676433534200,10.3455341796875,-0.366302490234375,-0.988372802734375,-0.067138671875
1737751676443602200,10.355602294921875,-0.340179443359375,-0.9597015380859375,-0.0959320068359375
1737751676453670100,10.365670166015626,-0.3135528564453125,-0.935791015625,-0.12591552734375
1737751676463739000,10.37573876953125,-0.28350830078125,-0.921966552734375,-0.1536712646484375
1737751676473807000,10.38580712890625,-0.256011962890625,-0.9245758056640625,-0.17706298828125
1737751676483875000,10.395875,-0.232879638671875,-0.9330902099609375,-0.195037841796875
1737751676493943000,10.405943115234376,-0.2142791748046875,-0.9308624267578125,-0.2049713134765625
1737751676504011000,10.416010986328125,-0.2053680419921875,-0.91400146484375,-0.2095947265625
1737751676514079000,10.426078857421874,-0.1995697021484375,-0.8982086181640625,-0.21014404296875
1737751676524147000,10.43614697265625,-0.198944091796875,-0.8975677490234375,-0.2111053466796875
1737751676534216000,10.4462158203125,-0.2044677734375,-0.904205322265625,-0.21673583984375
1737751676544284200,10.4562841796875,-0.2108001708984375,-0.9108428955078125,-0.2205657958984375
1737751676554352000,10.46635205078125,-0.2200775146484375,-0.9109954833984375,-0.2209625244140625
1737751676564420000,10.476420166015625,-0.2248382568359375,-0.90802001953125,-0.2215576171875
1737751676574487800,10.48648779296875,-0.228973388671875,-0.9036712646484375,-0.225372314453125
1737751676584556000,10.49655615234375,-0.23138427734375,-0.899261474609375,-0.2315216064453125
1737751676594624000,10.5066240234375,-0.232208251953125,-0.893402099609375,-0.2406768798828125
1737751676604693000,10.51669287109375,-0.2357940673828125,-0.8910064697265625,-0.255859375
1737751676614761700,10.52676171875,-0.237762451171875,-0.892730712890625,-0.27288818359375
1737751676624830000,10.536829833984376,-0.237548828125,-0.896575927734375,-0.284637451171875
1737751676634898000,10.54689794921875,-0.2293548583984375,-0.895111083984375,-0.285797119140625
1737751676644966000,10.5569658203125,-0.2234954833984375,-0.8836822509765625,-0.280426025390625
1737751676655034000,10.5670341796875,-0.221527099609375,-0.8639678955078125,-0.2727203369140625
1737751676665102000,10.57710205078125,-0.225006103515625,-0.843475341796875,-0.2638397216796875
1737751676675170800,10.5871708984375,-0.2308807373046875,-0.826568603515625,-0.2587127685546875
1737751676685238800,10.59723876953125,-0.2391815185546875,-0.8250885009765625,-0.254547119140625
1737751676695307000,10.60730712890625,-0.2470703125,-0.8464202880859375,-0.2473907470703125
1737751676705375000,10.617375,-0.2540130615234375,-0.886016845703125,-0.2285003662109375
1737751676715443000,10.62744287109375,-0.2628021240234375,-0.9450836181640625,-0.2035064697265625
1737751676725511000,10.637510986328126,-0.26654052734375,-1.02606201171875,-0.1896820068359375
1737751676735580000,10.647579833984375,-0.27838134765625,-1.10565185546875,-0.1972503662109375
1737751676745647900,10.65764794921875,-0.281585693359375,-1.1683349609375,-0.2301788330078125
1737751676755715800,10.6677158203125,-0.2793731689453125,-1.2001953125,-0.288299560546875
1737751676765784000,10.6777841796875,-0.281097412109375,-1.1771392822265625,-0.35516357421875
1737751676775852000,10.68785205078125,-0.29937744140625,-1.107177734375,-0.4257659912109375
1737751676785920000,10.697919921875,-0.3260345458984375,-1.0213775634765625,-0.487701416015625
1737751676795988000,10.707988037109375,-0.3550262451171875,-0.9320526123046875,-0.5318450927734375
1737751676806057000,10.718056884765625,-0.3905181884765625,-0.858154296875,-0.5709228515625
1737751676816125000,10.728125,-0.4296722412109375,-0.815521240234375,-0.6023406982421875
1737751676826193000,10.73819287109375,-0.4732818603515625,-0.8036651611328125,-0.6019134521484375
1737751676836261000,10.74826123046875,-0.502288818359375,-0.8047332763671875,-0.5651702880859375
1737751676846329000,10.7583291015625,-0.51544189453125,-0.8123626708984375,-0.50439453125
1737751676856396800,10.768396728515626,-0.5178375244140625,-0.81622314453125,-0.4387664794921875
1737751676866464800,10.77846484375,-0.5135955810546875,-0.817291259765625,-0.3822174072265625
1737751676876534000,10.788533935546875,-0.5077667236328125,-0.8182830810546875,-0.3412933349609375
1737751676886602000,10.79860205078125,-0.4933013916015625,-0.8069915771484375,-0.3128204345703125
1737751676896670000,10.808669921875,-0.4635162353515625,-0.7782135009765625,-0.2924041748046875
1737751676906738000,10.818738037109375,-0.442718505859375,-0.736053466796875,-0.2867279052734375
1737751676916806000,10.828805908203124,-0.4214935302734375,-0.6966094970703125,-0.2947845458984375
1737751676926873900,10.838873779296875,-0.4066619873046875,-0.675384521484375,-0.3116607666015625
1737751676936943000,10.848943115234375,-0.4061737060546875,-0.6689300537109375,-0.3299713134765625
1737751676947011000,10.859010986328125,-0.419097900390625,-0.669189453125,-0.3492584228515625
1737751676957079000,10.8690791015625,-0.433685302734375,-0.6676788330078125,-0.364410400390625
1737751676967146800,10.879146728515625,-0.445953369140625,-0.6623077392578125,-0.37261962890625
1737751676977215000,10.889215087890625,-0.4572906494140625,-0.662353515625,-0.3794403076171875
1737751676987283000,10.899282958984376,-0.4684295654296875,-0.6650238037109375,-0.3819732666015625
1737751676997352000,10.90935205078125,-0.481475830078125,-0.6587066650390625,-0.3734893798828125
1737751677007420200,10.919420166015625,-0.494873046875,-0.6446380615234375,-0.35797119140625
1737751677017488100,10.929488037109374,-0.5080108642578125,-0.64044189453125,-0.34393310546875
1737751677027555800,10.939555908203126,-0.5179443359375,-0.6422576904296875,-0.32415771484375
1737751677037623800,10.949623779296875,-0.53460693359375,-0.640960693359375,-0.3098602294921875
1737751677047692000,10.959692138671874,-0.5533599853515625,-0.6434173583984375,-0.3061065673828125
1737751677057760000,10.969760009765626,-0.56219482421875,-0.6617889404296875,-0.3057403564453125
1737751677067829000,10.9798291015625,-0.5670166015625,-0.6880340576171875,-0.31243896484375
1737751677077897000,10.98989697265625,-0.56585693359375,-0.70892333984375,-0.3249359130859375
1737751677087965000,10.99996484375,-0.5633087158203125,-0.7189483642578125,-0.344696044921875
1737751677098033000,11.010032958984375,-0.551727294921875,-0.7307891845703125,-0.3731842041015625
1737751677108100900,11.020100830078125,-0.526519775390625,-0.7501068115234375,-0.40533447265625
1737751677118168800,11.0301689453125,-0.5053558349609375,-0.78759765625,-0.4424285888671875
1737751677128237000,11.040237060546875,-0.4880828857421875,-0.8271942138671875,-0.4683380126953125
1737751677138305800,11.050305908203125,-0.4838714599609375,-0.8425750732421875,-0.4867095947265625
1737751677148373800,11.060373779296874,-0.4900970458984375,-0.8370513916015625,-0.493560791015625
1737751677158442000,11.07044189453125,-0.5009002685546875,-0.818939208984375,-0.48272705078125
1737751677168510000,11.080510009765625,-0.5156097412109375,-0.7951202392578125,-0.4588775634765625
1737751677178578000,11.090577880859374,-0.526947021484375,-0.767974853515625,-0.416961669921875
1737751677188646000,11.10064599609375,-0.53369140625,-0.7424468994140625,-0.3603057861328125
1737751677198715000,11.11071484375,-0.5330047607421875,-0.7177581787109375,-0.3047943115234375
1737751677208782800,11.120782958984375,-0.532928466796875,-0.6898956298828125,-0.260162353515625
1737751677218850800,11.130850830078124,-0.529296875,-0.659210205078125,-0.2262115478515625
1737751677228919000,11.1409189453125,-0.5219573974609375,-0.6248321533203125,-0.2060699462890625
1737751677238987000,11.150987060546875,-0.51922607421875,-0.5908966064453125,-0.193206787109375
1737751677249055000,11.161054931640624,-0.51605224609375,-0.563385009765625,-0.1912994384765625
1737751677259123000,11.171123046875,-0.494049072265625,-0.5476531982421875,-0.1947021484375
1737751677269192000,11.18119189453125,-0.461639404296875,-0.553619384765625,-0.2080535888671875
1737751677279260000,11.191260009765625,-0.427520751953125,-0.584320068359375,-0.2345428466796875
1737751677289327900,11.201327880859376,-0.3952178955078125,-0.6281585693359375,-0.26776123046875
1737751677299396000,11.21139599609375,-0.3712921142578125,-0.6685028076171875,-0.3027191162109375
1737751677309464000,11.221464111328125,-0.354705810546875,-0.6926727294921875,-0.33453369140625
1737751677319532000,11.231531982421876,-0.3457794189453125,-0.704315185546875,-0.360809326171875
1737751677329601000,11.24160107421875,-0.3441162109375,-0.7149505615234375,-0.3821563720703125
1737751677339669000,11.2516689453125,-0.3448333740234375,-0.7289581298828125,-0.3944549560546875
1737751677349737000,11.261737060546874,-0.33734130859375,-0.7526092529296875,-0.3991241455078125
1737751677359805000,11.271804931640625,-0.331939697265625,-0.78204345703125,-0.3984527587890625
1737751677369873200,11.281873046875,-0.32989501953125,-0.80303955078125,-0.397369384765625
1737751677379940900,11.29194091796875,-0.33245849609375,-0.815887451171875,-0.39312744140625
1737751677390008800,11.3020087890625,-0.3354949951171875,-0.8287506103515625,-0.3804779052734375
1737751677400078000,11.312078125,-0.34124755859375,-0.834381103515625,-0.36309814453125
1737751677410146000,11.32214599609375,-0.3441314697265625,-0.83660888671875,-0.3496551513671875
1737751677420214000,11.332214111328126,-0.3413543701171875,-0.8481292724609375,-0.3438262939453125
1737751677430282000,11.342281982421875,-0.341796875,-0.8584442138671875,-0.3438873291015625
1737751677440350000,11.352349853515625,-0.34344482421875,-0.8485565185546875,-0.346893310546875
1737751677450418000,11.36241796875,-0.3479766845703125,-0.8191986083984375,-0.355316162109375
1737751677460487000,11.37248681640625,-0.3494110107421875,-0.776458740234375,-0.359344482421875
1737751677470555100,11.38255517578125,-0.3449859619140625,-0.741973876953125,-0.3626556396484375
1737751677480623000,11.392623046875,-0.3353729248046875,-0.726837158203125,-0.359039306640625
1737751677490691000,11.402691162109376,-0.332244873046875,-0.7265625,-0.354248046875
1737751677500758800,11.4127587890625,-0.3287200927734375,-0.737213134765625,-0.3425140380859375
1737751677510827000,11.422826904296874,-0.3271636962890625,-0.7523193359375,-0.31439208984375
1737751677520895000,11.43289501953125,-0.3234100341796875,-0.773193359375,-0.280242919921875
1737751677530964000,11.4429638671875,-0.31500244140625,-0.8017120361328125,-0.2459564208984375
1737751677541032000,11.453031982421875,-0.3082733154296875,-0.8329620361328125,-0.2154388427734375
1737751677551100000,11.463099853515626,-0.305419921875,-0.8607940673828125,-0.1920166015625
1737751677561168000,11.47316796875,-0.3046112060546875,-0.8845977783203125,-0.1780853271484375
1737751677571235800,11.48323583984375,-0.2972259521484375,-0.9018707275390625,-0.167266845703125
1737751677581303800,11.4933037109375,-0.2909698486328125,-0.905548095703125,-0.16033935546875
1737751677591372000,11.5033720703125,-0.2869720458984375,-0.9033050537109375,-0.15606689453125
1737751677601441000,11.51344091796875,-0.2859649658203125,-0.899688720703125,-0.1463623046875
1737751677611508700,11.5235087890625,-0.2906341552734375,-0.89715576171875,-0.1422119140625
1737751677621572600,11.533572509765625,-0.2987823486328125,-0.90447998046875,-0.1430816650390625
1737751677631640300,11.543640380859374,-0.2965545654296875,-0.919403076171875,-0.1588287353515625
1737751677641708300,11.553708251953125,-0.296630859375,-0.952301025390625,-0.1867523193359375
1737751677651776300,11.5637763671875,-0.2982330322265625,-0.979766845703125,-0.2046661376953125
1737751677661845500,11.573845458984374,-0.2969970703125,-0.991302490234375,-0.2198028564453125
1737751677671913500,11.58391357421875,-0.29986572265625,-0.986236572265625,-0.232452392578125
1737751677681981400,11.5939814453125,-0.30841064453125,-0.9672698974609375,-0.24664306640625
1737751677692049400,11.60404931640625,-0.325439453125,-0.933807373046875,-0.26617431640625
1737751677702117400,11.614117431640626,-0.3348541259765625,-0.8956146240234375,-0.28875732421875
1737751677712185300,11.624185302734375,-0.3401947021484375,-0.8639373779296875,-0.3113555908203125
1737751677722253300,11.63425341796875,-0.3524627685546875,-0.84149169921875,-0.3387298583984375
1737751677732322600,11.644322509765624,-0.364227294921875,-0.8299407958984375,-0.362152099609375
1737751677742390300,11.654390380859375,-0.362548828125,-0.833526611328125,-0.37078857421875
1737751677752458200,11.664458251953125,-0.3438262939453125,-0.8580322265625,-0.3755340576171875
1737751677762526500,11.6745263671875,-0.3291015625,-0.8934173583984375,-0.3887176513671875
1737751677772594400,11.684594482421875,-0.3223114013671875,-0.9215545654296875,-0.4051055908203125
1737751677782662400,11.694662353515625,-0.323333740234375,-0.9408416748046875,-0.4149017333984375
1737751677792731600,11.704731689453125,-0.328094482421875,-0.9524078369140625,-0.4376068115234375
1737751677802799400,11.71479931640625,-0.340728759765625,-0.9541778564453125,-0.4668731689453125
1737751677812867300,11.724867431640625,-0.3585662841796875,-0.9407196044921875,-0.4925537109375
1737751677822935300,11.734935302734375,-0.3628692626953125,-0.916534423828125,-0.50067138671875
1737751677833003500,11.74500341796875,-0.343048095703125,-0.891693115234375,-0.490203857421875
1737751677843071500,11.755071533203125,-0.3187713623046875,-0.89337158203125,-0.4804840087890625
1737751677853139500,11.765139404296875,-0.3004608154296875,-0.9181976318359375,-0.4832000732421875
1737751677863208200,11.775208251953124,-0.293304443359375,-0.9550018310546875,-0.48907470703125
1737751677873276400,11.7852763671875,-0.291259765625,-0.973968505859375,-0.489776611328125
1737751677883344400,11.795344482421875,-0.296295166015625,-0.9833221435546875,-0.4903106689453125
1737751677893412400,11.805412353515624,-0.3043365478515625,-0.9921875,-0.48956298828125
1737751677903480300,11.815480224609376,-0.309814453125,-0.99798583984375,-0.4870758056640625
1737751677913548500,11.825548583984375,-0.311492919921875,-0.999176025390625,-0.4847412109375
1737751677923617300,11.8356171875,-0.3192138671875,-0.994720458984375,-0.48040771484375
1737751677933685200,11.845685302734376,-0.329376220703125,-0.9798583984375,-0.468109130859375
1737751677943753500,11.85575341796875,-0.3410797119140625,-0.9513702392578125,-0.4484710693359375
1737751677953821400,11.865821533203125,-0.35040283203125,-0.9316558837890625,-0.426605224609375
1737751677963889400,11.875889404296874,-0.3554534912109375,-0.9199981689453125,-0.408172607421875
1737751677973957400,11.885957275390625,-0.3573760986328125,-0.929473876953125,-0.40087890625
1737751677984025600,11.896025634765625,-0.3650970458984375,-0.9443817138671875,-0.4041290283203125
1737751677994094300,11.90609423828125,-0.375701904296875,-0.94915771484375,-0.40228271484375
1737751678004162300,11.916162353515626,-0.38165283203125,-0.9469757080078125,-0.3961639404296875
1737751678014230500,11.92623046875,-0.3879547119140625,-0.93707275390625,-0.389495849609375
1737751678024298500,11.936298583984374,-0.392181396484375,-0.931365966796875,-0.3822479248046875
1737751678034366500,11.946366455078126,-0.3961944580078125,-0.9337310791015625,-0.38385009765625
1737751678044434400,11.956434326171875,-0.3934783935546875,-0.9465789794921875,-0.389373779296875
1737751678054503400,11.96650341796875,-0.38275146484375,-0.9576263427734375,-0.396728515625
1737751678064571400,11.9765712890625,-0.3805694580078125,-0.96136474609375,-0.4143524169921875
1737751678074639400,11.986639404296875,-0.383026123046875,-0.9556427001953125,-0.4310150146484375
1737751678084707600,11.99670751953125,-0.3819580078125,-0.95184326171875,-0.444305419921875
1737751678094775600,12.006775634765624,-0.3802642822265625,-0.959228515625,-0.4625396728515625
1737751678104843300,12.01684326171875,-0.3670501708984375,-0.9832763671875,-0.48394775390625
1737751678114911200,12.0269111328125,-0.3455657958984375,-1.0119476318359375,-0.50323486328125
1737751678124980500,12.03698046875,-0.323944091796875,-1.0125732421875,-0.523406982421875
1737751678135048400,12.04704833984375,-0.3120880126953125,-0.9983062744140625,-0.5523681640625
1737751678145116400,12.057116455078125,-0.3076934814453125,-0.9696197509765625,-0.5853118896484375
1737751678155184400,12.067184326171875,-0.307464599609375,-0.937713623046875,-0.61236572265625
1737751678165252400,12.07725244140625,-0.3062591552734375,-0.8986053466796875,-0.640533447265625
1737751678175320300,12.0873203125,-0.30126953125,-0.8631591796875,-0.6781158447265625
1737751678185389600,12.0973896484375,-0.2872161865234375,-0.8477020263671875,-0.7175445556640625
1737751678195457500,12.10745751953125,-0.2644500732421875,-0.8529815673828125,-0.749725341796875
1737751678205525500,12.117525390625,-0.246429443359375,-0.862945556640625,-0.77154541015625
1737751678215593200,12.12759326171875,-0.239990234375,-0.852386474609375,-0.7711639404296875
1737751678225661400,12.137661376953124,-0.22979736328125,-0.8213348388671875,-0.7563629150390625
1737751678235729400,12.1477294921875,-0.2144927978515625,-0.78546142578125,-0.740997314453125
1737751678245798400,12.15779833984375,-0.1995086669921875,-0.74969482421875,-0.7395782470703125
1737751678255866400,12.167866455078125,-0.187713623046875,-0.7208404541015625,-0.746917724609375
1737751678265934600,12.1779345703125,-0.1852264404296875,-0.7154998779296875,-0.7456817626953125
1737751678276002300,12.188002197265625,-0.1793975830078125,-0.72650146484375,-0.726776123046875
1737751678286070300,12.1980703125,-0.1644744873046875,-0.7437744140625,-0.6920318603515625
1737751678296138500,12.208138427734376,-0.14605712890625,-0.7586212158203125,-0.6534576416015625
1737751678306206500,12.21820654296875,-0.131988525390625,-0.76739501953125,-0.6177215576171875
1737751678316275500,12.228275390625,-0.12078857421875,-0.7802886962890625,-0.588470458984375
1737751678326343400,12.238343505859374,-0.1170806884765625,-0.7950897216796875,-0.566131591796875
1737751678336411400,12.248411376953126,-0.1180572509765625,-0.8080596923828125,-0.552825927734375
1737751678346479400,12.258479248046875,-0.119598388671875,-0.81719970703125,-0.5400390625
1737751678356547300,12.26854736328125,-0.1216583251953125,-0.826324462890625,-0.5219879150390625
1737751678366615300,12.278615234375,-0.136383056640625,-0.836761474609375,-0.5082550048828125
1737751678376684500,12.2886845703125,-0.1419219970703125,-0.848358154296875,-0.5011138916015625
1737751678386752300,12.298752197265625,-0.1497955322265625,-0.8598175048828125,-0.4921875
1737751678396820200,12.3088203125,-0.162384033203125,-0.865997314453125,-0.49737548828125
1737751678406888400,12.318888427734375,-0.183685302734375,-0.8712005615234375,-0.518798828125
1737751678416956400,12.328956298828125,-0.20220947265625,-0.882110595703125,-0.5406341552734375
1737751678427024400,12.3390244140625,-0.2132720947265625,-0.893341064453125,-0.5612335205078125
1737751678437093400,12.34909326171875,-0.212615966796875,-0.9089202880859375,-0.588104248046875
1737751678447161300,12.359161376953125,-0.213897705078125,-0.9305267333984375,-0.61407470703125
1737751678457229300,12.369229248046874,-0.2154998779296875,-0.949249267578125,-0.629180908203125
1737751678467297300,12.37929736328125,-0.2209625244140625,-0.95562744140625,-0.6420745849609375
1737751678477365500,12.389365478515625,-0.2365875244140625,-0.950439453125,-0.6499786376953125
1737751678487433500,12.39943359375,-0.2553558349609375,-0.944915771484375,-0.650115966796875
1737751678497502200,12.409502197265626,-0.2754364013671875,-0.9410552978515625,-0.6476287841796875
1737751678507570400,12.4195703125,-0.2936248779296875,-0.9410858154296875,-0.635223388671875
1737751678517638400,12.429638427734375,-0.31427001953125,-0.9499664306640625,-0.6102447509765625
1737751678527706400,12.439706298828124,-0.331573486328125,-0.96636962890625,-0.5760650634765625
1737751678537774300,12.4497744140625,-0.344970703125,-0.98675537109375,-0.5399322509765625
1737751678547842600,12.459842529296875,-0.3535614013671875,-0.9988555908203125,-0.51068115234375
1737751678557911300,12.469911376953124,-0.358184814453125,-0.9950103759765625,-0.493255615234375
1737751678567979300,12.479979248046876,-0.3654327392578125,-0.971435546875,-0.485504150390625
1737751678578047500,12.490047607421875,-0.3713531494140625,-0.9377593994140625,-0.479644775390625
1737751678588115500,12.500115478515625,-0.366241455078125,-0.8995208740234375,-0.47528076171875
1737751678598183400,12.510183349609376,-0.355712890625,-0.862335205078125,-0.4674072265625
1737751678608251400,12.52025146484375,-0.34423828125,-0.83917236328125,-0.4640045166015625
1737751678618325000,12.530324951171876,-0.3309173583984375,-0.8371429443359375,-0.4591064453125
1737751678628393000,12.54039306640625,-0.31787109375,-0.851348876953125,-0.4542388916015625
1737751678638461000,12.5504609375,-0.31427001953125,-0.8649444580078125,-0.4541473388671875
1737751678648529000,12.56052880859375,-0.314208984375,-0.8607177734375,-0.450775146484375
1737751678658597000,12.57059716796875,-0.3060302734375,-0.835723876953125,-0.4482574462890625
1737751678668664800,12.580664794921875,-0.2895050048828125,-0.7966156005859375,-0.4483642578125
1737751678678732800,12.59073291015625,-0.27630615234375,-0.75006103515625,-0.446746826171875
1737751678688802000,12.600802001953125,-0.2664642333984375,-0.7059783935546875,-0.450408935546875
1737751678698870000,12.6108701171875,-0.2602386474609375,-0.6720428466796875,-0.468231201171875
1737751678708938000,12.62093798828125,-0.2553863525390625,-0.6470489501953125,-0.4971160888671875
1737751678719005700,12.631005615234375,-0.2488555908203125,-0.635162353515625,-0.53118896484375
1737751678729074000,12.641073974609375,-0.2355194091796875,-0.6324462890625,-0.550750732421875
1737751678739142000,12.651141845703124,-0.221343994140625,-0.6345367431640625,-0.5539398193359375
1737751678749211000,12.6612109375,-0.20758056640625,-0.634521484375,-0.545623779296875
1737751678759279000,12.671279052734375,-0.200836181640625,-0.6269683837890625,-0.5330047607421875
1737751678769347000,12.68134716796875,-0.1971435546875,-0.61309814453125,-0.5198211669921875
1737751678779414800,12.691414794921876,-0.194122314453125,-0.5996246337890625,-0.5126953125
1737751678789482800,12.701482666015625,-0.1849517822265625,-0.597747802734375,-0.5101470947265625
1737751678799551000,12.711551025390625,-0.1782989501953125,-0.603759765625,-0.5128173828125
1737751678809620000,12.721619873046874,-0.167816162109375,-0.608245849609375,-0.51568603515625
1737751678819688000,12.73168798828125,-0.1544342041015625,-0.60382080078125,-0.5156707763671875
1737751678829756000,12.741755859375,-0.1565093994140625,-0.5981292724609375,-0.5078582763671875
1737751678839824000,12.751823974609374,-0.163848876953125,-0.594268798828125,-0.4904327392578125
1737751678849891800,12.761891845703126,-0.1626129150390625,-0.6061859130859375,-0.4680633544921875
1737751678859959800,12.771959716796875,-0.1572265625,-0.6398162841796875,-0.4517822265625
1737751678870029000,12.782029052734375,-0.1578369140625,-0.6769561767578125,-0.45159912109375
1737751678880097000,12.792096923828124,-0.1654052734375,-0.702117919921875,-0.4707183837890625
1737751678890164700,12.802164794921875,-0.1716766357421875,-0.717620849609375,-0.49615478515625
1737751678900232700,12.812232666015625,-0.1810760498046875,-0.72845458984375,-0.5256195068359375
1737751678910301000,12.822301025390624,-0.18829345703125,-0.7294158935546875,-0.5484619140625
1737751678920369000,12.832368896484375,-0.194183349609375,-0.72479248046875,-0.559814453125
1737751678930438000,12.84243798828125,-0.1952362060546875,-0.7267608642578125,-0.5665130615234375
1737751678940505900,12.852505859375,-0.1971588134765625,-0.7378082275390625,-0.5821533203125
1737751678950573800,12.86257373046875,-0.201446533203125,-0.7426300048828125,-0.6087799072265625
1737751678960641800,12.872641845703125,-0.2093505859375,-0.7437591552734375,-0.6352691650390625
1737751678970709800,12.882709716796874,-0.2247314453125,-0.7427215576171875,-0.656402587890625
1737751678980778000,12.892778076171876,-0.241363525390625,-0.739288330078125,-0.67523193359375
1737751678990847000,12.902846923828125,-0.25616455078125,-0.7386016845703125,-0.6834869384765625
1737751679000914700,12.912914794921875,-0.25762939453125,-0.7435455322265625,-0.6750946044921875
1737751679010983000,12.92298291015625,-0.2440185546875,-0.7484893798828125,-0.66912841796875
1737751679021051000,12.93305078125,-0.2314453125,-0.750885009765625,-0.672088623046875
1737751679031118800,12.943118896484375,-0.2243194580078125,-0.740631103515625,-0.680328369140625
1737751679041186800,12.953186767578124,-0.2277069091796875,-0.720001220703125,-0.6937103271484375
1737751679051256000,12.963256103515626,-0.2299957275390625,-0.714691162109375,-0.7097015380859375
