time,seconds_elapsed,z,y,x
1737751666199245600,0.11124560546875,-0.04688175395131111,0.02671869657933712,-0.015033810399472713
1737751666209314800,0.121314697265625,-0.05952244997024536,0.036433376371860504,-0.003495931625366211
1737751666219382800,0.1313828125,-0.0692344680428505,0.04152720421552658,0.0007781756576150656
1737751666229450800,0.14145068359375,-0.07929828763008118,0.042090993374586105,0.004603007808327675
1737751666239519000,0.15151904296875,-0.08438598364591599,0.05119368061423302,0.010280334390699863
1737751666249587000,0.1615869140625,-0.08425282686948776,0.069710373878479,0.012859073467552662
1737751666259654700,0.171654541015625,-0.0807744711637497,0.09330784529447556,0.024394288659095764
1737751666269724000,0.181723876953125,-0.07156845927238464,0.11732396483421326,0.0337398536503315
1737751666279791900,0.1917919921875,-0.06126229092478752,0.12724903225898743,0.04147979989647865
1737751666289859800,0.20185986328125,-0.06417525559663773,0.11470208317041397,0.04915236681699753
1737751666299927800,0.211927734375,-0.09429241716861725,0.10931450873613358,0.04903119057416916
1737751666309995800,0.221995849609375,-0.11456306278705597,0.09451132267713547,0.05885079875588417
1737751666320063700,0.232063720703125,-0.1258370280265808,0.08708536624908447,0.07439007610082626
1737751666330132700,0.2421328125,-0.1200086921453476,0.08980445563793182,0.07942105829715729
1737751666340200700,0.25220068359375,-0.10543960332870483,0.11244025826454163,0.07966100424528122
1737751666350269000,0.26226904296875,-0.09768075495958328,0.14848588407039642,0.09543943405151367
1737751666360337000,0.2723369140625,-0.10646146535873413,0.16736343502998352,0.12314243614673615
1737751666370404600,0.282404541015625,-0.12397094815969467,0.17291559278964996,0.15409715473651886
1737751666380472800,0.292472900390625,-0.13652083277702332,0.17299655079841614,0.18061025440692902
1737751666390541800,0.302541748046875,-0.14268098771572113,0.1870785504579544,0.19846461713314056
1737751666400609800,0.31260986328125,-0.13690485060214996,0.1960374116897583,0.2046271711587906
1737751666410677800,0.322677734375,-0.11972799897193909,0.1825849860906601,0.20153658092021942
1737751666420745700,0.332745849609375,-0.10458126664161682,0.15004035830497742,0.20131367444992065
1737751666430813700,0.342813720703125,-0.09631481766700745,0.12645673751831055,0.19344136118888855
1737751666440881700,0.352881591796875,-0.0872078686952591,0.11578278988599777,0.17612603306770325
1737751666450951000,0.362950927734375,-0.06548739969730377,0.10088826715946198,0.16532105207443237
1737751666461019000,0.373018798828125,-0.04963013529777527,0.08889072388410568,0.15385746955871582
1737751666471086800,0.3830869140625,-0.04283801093697548,0.08284774422645569,0.143588587641716
1737751666481154600,0.393154541015625,-0.03722513094544411,0.07888150215148926,0.12823545932769775
1737751666491222800,0.403222900390625,-0.03363386169075966,0.07333493232727051,0.10887162387371063
1737751666501290800,0.413290771484375,-0.03207883983850479,0.06563413888216019,0.09433715790510178
1737751666511359700,0.42335986328125,-0.027773307636380196,0.0665191039443016,0.08728670328855515
1737751666521428000,0.433427978515625,-0.025177525356411934,0.06770501285791397,0.07641913741827011
1737751666531496000,0.443495849609375,-0.018551047891378403,0.06930690258741379,0.07003661245107651
1737751666541563600,0.453563720703125,-0.006091182120144367,0.07831265032291412,0.05838900804519653
1737751666551631600,0.463631591796875,0.00800093449652195,0.07718266546726227,0.053351372480392456
1737751666561699800,0.473699951171875,0.024338895455002785,0.07708785682916641,0.046960584819316864
1737751666571768800,0.483768798828125,0.04363429546356201,0.07130427658557892,0.03262398764491081
1737751666581836800,0.4938369140625,0.0667651817202568,0.07634936273097992,0.022217953577637672
1737751666591904800,0.50390478515625,0.08095290511846542,0.07447689771652222,0.020190488547086716
1737751666601972500,0.513972412109375,0.07732141762971878,0.06450122594833374,0.027894482016563416
1737751666612040700,0.524040771484375,0.05975015088915825,0.032531578093767166,0.030359769240021706
1737751666622108700,0.534108642578125,0.03253583982586861,-0.016323046758770943,0.019875437021255493
1737751666632175600,0.544175537109375,0.011534417048096657,-0.07402203232049942,0.006485329940915108
1737751666642243600,0.55424365234375,-0.006922620814293623,-0.13606062531471252,-0.02316577360033989
1737751666652311800,0.564311767578125,-0.027160780504345894,-0.18568117916584015,-0.057083260267972946
1737751666662380800,0.574380859375,-0.0590265691280365,-0.2247779816389084,-0.10149626433849335
1737751666672448500,0.584448486328125,-0.09338294714689255,-0.25265729427337646,-0.12871643900871277
1737751666682516700,0.594516845703125,-0.12598057091236115,-0.285494327545166,-0.15603381395339966
1737751666692584700,0.604584716796875,-0.15279221534729004,-0.2961597442626953,-0.19012440741062164
1737751666702652700,0.614652587890625,-0.18336689472198486,-0.27617138624191284,-0.22752130031585693
1737751666712720600,0.624720703125,-0.2219872623682022,-0.2233007252216339,-0.2641906440258026
1737751666722788900,0.634788818359375,-0.2634026110172272,-0.14960360527038574,-0.2985701858997345
1737751666732857600,0.644857666015625,-0.3037787973880768,-0.07051943987607956,-0.3170543909072876
1737751666742925600,0.654925537109375,-0.34028753638267517,-0.0052200620993971825,-0.3270431160926819
1737751666752993500,0.66499365234375,-0.3750779926776886,0.053033389151096344,-0.3274020850658417
1737751666763061800,0.675061767578125,-0.3977665305137634,0.09140421450138092,-0.3214520514011383
1737751666773129700,0.685129638671875,-0.4130679965019226,0.12116184085607529,-0.3028629422187805
1737751666783197700,0.69519775390625,-0.41910725831985474,0.13795015215873718,-0.28447991609573364
1737751666793266700,0.7052666015625,-0.40675950050354004,0.14258937537670135,-0.264723539352417
1737751666803334700,0.715334716796875,-0.35623136162757874,0.12281753122806549,-0.2484617382287979
1737751666813402600,0.725402587890625,-0.29325345158576965,0.07798108458518982,-0.23781469464302063
1737751666823470600,0.735470703125,-0.22905822098255157,0.017113739624619484,-0.2234131097793579
1737751666833538800,0.745538818359375,-0.1806856244802475,-0.039558060467243195,-0.20483916997909546
1737751666843606800,0.755606689453125,-0.13860128819942474,-0.085690937936306,-0.17693749070167542
1737751666853675500,0.765675537109375,-0.10572083294391632,-0.12252804636955261,-0.17798225581645966
1737751666863743700,0.77574365234375,-0.07303266227245331,-0.14257152378559113,-0.17975884675979614
1737751666873811700,0.785811767578125,-0.03538994863629341,-0.16545633971691132,-0.1379898339509964
1737751666883879700,0.795879638671875,-0.012724583968520164,-0.1762104481458664,-0.059599947184324265
1737751666893947600,0.80594775390625,-0.011375159956514835,-0.139645516872406,0.016047408804297447
1737751666904016000,0.816015869140625,-0.012880644761025906,-0.0650666207075119,0.07371257245540619
1737751666914084600,0.826084716796875,-0.005131112411618233,0.017481256276369095,0.09324818849563599
1737751666924152600,0.836152587890625,0.023782826960086823,0.08082640916109085,0.08694075793027878
1737751666934220800,0.846220703125,0.05336042493581772,0.1296067237854004,0.08578121662139893
1737751666944288800,0.856288818359375,0.06324687600135803,0.1745145469903946,0.09782110154628754
1737751666954356700,0.866356689453125,0.04146568477153778,0.21073992550373077,0.12294403463602066
1737751666964424700,0.8764248046875,0.010692858137190342,0.24700073897838593,0.12464046478271484
1737751666974493700,0.88649365234375,-0.02779514528810978,0.2829291820526123,0.13832885026931763
1737751666984561700,0.896561767578125,-0.06132088229060173,0.3170461356639862,0.15285345911979675
1737751666994629600,0.906629638671875,-0.11252148449420929,0.35183393955230713,0.16362088918685913
1737751667004697900,0.91669775390625,-0.1807897537946701,0.3965822458267212,0.17386260628700256
1737751667014765800,0.926765869140625,-0.2534506320953369,0.4298805296421051,0.17837347090244293
1737751667024833800,0.936833740234375,-0.3185848891735077,0.4517842233181,0.1731821745634079
1737751667034901500,0.946901611328125,-0.37846049666404724,0.4905092716217041,0.16193164885044098
1737751667044970800,0.956970703125,-0.42656436562538147,0.5428577065467834,0.146204873919487
1737751667055038700,0.967038818359375,-0.4637586176395416,0.5916182994842529,0.14148788154125214
1737751667065106700,0.977106689453125,-0.48788097500801086,0.6305294632911682,0.14367806911468506
1737751667075175000,0.9871748046875,-0.5058466792106628,0.6867325901985168,0.17884297668933868
1737751667085242600,0.99724267578125,-0.5162359476089478,0.7257478833198547,0.1843477338552475
1737751667095310600,1.007310546875,-0.5168737769126892,0.7587353587150574,0.19541849195957184
1737751667105379600,1.017379638671875,-0.506576657295227,0.7928414344787598,0.2162681221961975
1737751667115447800,1.02744775390625,-0.4939287602901459,0.8095058798789978,0.23676887154579163
1737751667125515800,1.037515869140625,-0.4645721912384033,0.7928637862205505,0.2807328701019287
1737751667135583700,1.047583740234375,-0.410495400428772,0.7372937202453613,0.3248142898082733
1737751667145651700,1.057651611328125,-0.3504568040370941,0.6839554309844971,0.3461070656776428
1737751667155719700,1.0677197265625,-0.27931472659111023,0.6427464485168457,0.3849165141582489
1737751667165788700,1.07778857421875,-0.21423053741455078,0.6219817996025085,0.42317521572113037
1737751667175856600,1.087856689453125,-0.15272828936576843,0.609927773475647,0.45828020572662354
1737751667185924900,1.0979248046875,-0.10806574672460556,0.582204282283783,0.4876042902469635
1737751667195992800,1.107992919921875,-0.07782209664583206,0.6269065141677856,0.5097034573554993
1737751667206060500,1.118060546875,-0.08666671812534332,0.5127235054969788,0.5182189345359802
1737751667216128500,1.12812841796875,-0.12628762423992157,0.44881880283355713,0.5435658097267151
1737751667226196700,1.13819677734375,-0.171290785074234,0.3852323591709137,0.5520250797271729
1737751667236265700,1.148265625,-0.21310801804065704,0.3143094778060913,0.5195342302322388
1737751667246333700,1.158333740234375,-0.23912043869495392,0.2281828373670578,0.459064245223999
1737751667256402700,1.168402587890625,-0.2546067237854004,0.11643499881029129,0.36710691452026367
1737751667266470700,1.178470703125,-0.2884136736392975,-0.013617275282740593,0.25425758957862854
1737751667276538600,1.18853857421875,-0.3450031876564026,-0.12855105102062225,0.13673201203346252
1737751667286606800,1.19860693359375,-0.428171843290329,-0.18668971955776215,0.031374167650938034
1737751667296675600,1.208675537109375,-0.5156412720680237,-0.18607719242572784,-0.060210343450307846
1737751667306743600,1.21874365234375,-0.579575777053833,-0.16791416704654694,-0.14434386789798737
1737751667316811800,1.228811767578125,-0.6178805232048035,-0.14506691694259644,-0.24170716106891632
1737751667326879700,1.238879638671875,-0.629878580570221,-0.12532223761081696,-0.3425312638282776
1737751667336947700,1.24894775390625,-0.620756208896637,-0.10392213612794876,-0.4570503830909729
1737751667347015700,1.259015625,-0.5985430479049683,-0.0712888240814209,-0.5928524136543274
1737751667357084700,1.269084716796875,-0.5527249574661255,-0.02468164451420307,-0.7331629395484924
1737751667367152600,1.279152587890625,-0.48520025610923767,0.009944776073098183,-0.8837500214576721
1737751667377220600,1.289220703125,-0.4192870259284973,0.010703244246542454,-0.9576948285102844
1737751667387288800,1.299288818359375,-0.39350736141204834,0.024770060554146767,-0.9392098188400269
1737751667397356800,1.309356689453125,-0.4220021069049835,0.046903859823942184,-0.8790079951286316
1737751667407424800,1.3194248046875,-0.46214208006858826,0.07905007898807526,-0.8244768381118774
1737751667417492700,1.32949267578125,-0.4492875337600708,0.09437097609043121,-0.7966875433921814
1737751667427561700,1.339561767578125,-0.368164986371994,0.08949552476406097,-0.7445308566093445
1737751667437629700,1.349629638671875,-0.26286518573760986,0.08630932122468948,-0.673800528049469
1737751667447697700,1.35969775390625,-0.1776464283466339,0.08949526399374008,-0.6257219314575195
1737751667457765600,1.369765625,-0.10570858418941498,0.07794087380170822,-0.6066576838493347
1737751667467833900,1.379833740234375,-0.022517826408147812,0.04343242943286896,-0.6025870442390442
1737751667477901800,1.38990185546875,0.06275872141122818,-0.005721535068005323,-0.582431972026825
1737751667487970600,1.399970458984375,0.11613485962152481,-0.05004798620939255,-0.5778273940086365
1737751667498038800,1.410038818359375,0.1496986746788025,-0.0927504450082779,-0.581222653388977
1737751667508106800,1.420106689453125,0.17657209932804108,-0.11498730629682541,-0.5599613189697266
1737751667518174700,1.4301748046875,0.1843264251947403,-0.11070467531681061,-0.5386637449264526
1737751667528242700,1.44024267578125,0.17149078845977783,-0.10340282320976257,-0.5198373198509216
1737751667538310700,1.450310546875,0.15126727521419525,-0.11024714261293411,-0.4846492409706116
1737751667548378600,1.460378662109375,0.12487615644931793,-0.10490777343511581,-0.4578368067741394
1737751667558447600,1.470447509765625,0.09764347225427628,-0.097198985517025,-0.45027077198028564
1737751667568515800,1.480515869140625,0.07386783510446548,-0.07335171103477478,-0.43622899055480957
1737751667578583800,1.490583740234375,0.056286443024873734,-0.03442854806780815,-0.42535823583602905
1737751667588651800,1.50065185546875,0.06388150900602341,0.009738913737237453,-0.3992544412612915
1737751667598719500,1.510719482421875,0.062377624213695526,0.050987016409635544,-0.3605741560459137
1737751667608788500,1.52078857421875,0.02899463288486004,0.090166375041008,-0.3495934307575226
1737751667618857700,1.530857666015625,0.0004689826746471226,0.10711553692817688,-0.3514597713947296
1737751667628925400,1.540925537109375,-0.022878417745232582,0.10799304395914078,-0.3638083040714264
1737751667638993400,1.550993408203125,-0.05402062460780144,0.0853433907032013,-0.3927861750125885
1737751667649061400,1.561061279296875,-0.09944429993629456,0.037514619529247284,-0.43160387873649597
1737751667659129600,1.571129638671875,-0.15414217114448547,-0.019540145993232727,-0.4676678478717804
1737751667669197600,1.581197509765625,-0.21306434273719788,-0.061408501118421555,-0.4876634180545807
1737751667679265500,1.591265625,-0.2711375057697296,-0.08684488385915756,-0.5053007006645203
1737751667689334500,1.60133447265625,-0.32202091813087463,-0.12500238418579102,-0.5412816405296326
1737751667699402500,1.611402587890625,-0.3824240565299988,-0.17722192406654358,-0.594607412815094
1737751667709470500,1.621470458984375,-0.47175315022468567,-0.21396848559379578,-0.6607491970062256
1737751667719538400,1.631538330078125,-0.5610779523849487,-0.19225625693798065,-0.7207382321357727
1737751667729606700,1.641606689453125,-0.6189689636230469,-0.10135005414485931,-0.7645037770271301
1737751667739674600,1.651674560546875,-0.6239956617355347,0.031385887414216995,-0.7816841006278992
1737751667749742600,1.66174267578125,-0.6069905757904053,0.1544249951839447,-0.807988166809082
1737751667759811600,1.6718115234375,-0.572791337966919,0.2763381004333496,-0.8339443802833557
1737751667769879600,1.681879638671875,-0.49135535955429077,0.32872888445854187,-0.7852618098258972
1737751667779947500,1.691947509765625,-0.3871256113052368,0.3102966248989105,-0.714296281337738
1737751667790015500,1.702015380859375,-0.3295893371105194,0.23095890879631042,-0.7507621645927429
1737751667800083700,1.712083740234375,-0.3582494854927063,0.07217060029506683,-0.8494117856025696
1737751667810151700,1.722151611328125,-0.42596569657325745,-0.15400740504264832,-0.9181753993034363
1737751667820220400,1.732220458984375,-0.4670284390449524,-0.3967798352241516,-0.954666793346405
1737751667830288600,1.74228857421875,-0.4418216049671173,-0.5598686337471008,-0.9581568837165833
1737751667840356600,1.752356689453125,-0.38461583852767944,-0.5868533849716187,-0.9230761528015137
1737751667850424600,1.762424560546875,-0.32462841272354126,-0.5265452861785889,-0.8465461730957031
1737751667860492500,1.772492431640625,-0.2768864631652832,-0.410310834646225,-0.7369294166564941
1737751667870560800,1.782560791015625,-0.24885216355323792,-0.23356108367443085,-0.6018602848052979
1737751667880628500,1.79262841796875,-0.23098129034042358,-0.005252552684396505,-0.4467551112174988
1737751667890697500,1.802697509765625,-0.22638653218746185,0.22083863615989685,-0.29256874322891235
1737751667900765400,1.812765380859375,-0.202896386384964,0.42061033844947815,-0.13528139889240265
1737751667910833700,1.822833740234375,-0.14765657484531403,0.5521997809410095,0.015211443416774273
1737751667920901600,1.832901611328125,-0.08052067458629608,0.6217367649078369,0.12805436551570892
1737751667930969600,1.842969482421875,-0.03202877193689346,0.615448534488678,0.1820068210363388
1737751667941037300,1.853037353515625,0.0069489860907197,0.5125336050987244,0.18715737760066986
1737751667951105500,1.86310546875,0.04824955388903618,0.32144832611083984,0.14891065657138824
1737751667961174500,1.873174560546875,0.08576923608779907,0.07506758719682693,0.09402689337730408
1737751667971242500,1.883242431640625,0.09813695400953293,-0.1889917552471161,0.03345036879181862
1737751667981310700,1.893310791015625,0.07676242291927338,-0.4322238564491272,-0.017901236191391945
1737751667991378400,1.90337841796875,0.028004469349980354,-0.6172837018966675,-0.05061604082584381
1737751668001446400,1.9134462890625,-0.026497919112443924,-0.7300406098365784,-0.0715002790093422
1737751668011514400,1.923514404296875,-0.08490476757287979,-0.7777010798454285,-0.08450663089752197
1737751668021582600,1.93358251953125,-0.14339178800582886,-0.7826058268547058,-0.08513220399618149
1737751668031651600,1.943651611328125,-0.19782200455665588,-0.7502478957176208,-0.0793057382106781
1737751668041719600,1.953719482421875,-0.25536438822746277,-0.6875634789466858,-0.06622029840946198
1737751668051787500,1.96378759765625,-0.32189708948135376,-0.6219077706336975,-0.053160689771175385
1737751668061855500,1.97385546875,-0.3930777907371521,-0.5657406449317932,-0.04223400726914406
1737751668071923500,1.98392333984375,-0.46643802523612976,-0.5318335294723511,-0.052012600004673004
1737751668081991400,1.993991455078125,-0.5379337668418884,-0.5194106698036194,-0.06593240797519684
1737751668092059600,2.0040595703125,-0.6029338240623474,-0.5208096504211426,-0.07995475083589554
1737751668102128400,2.01412841796875,-0.6716633439064026,-0.5451543927192688,-0.10818132758140564
1737751668112196400,2.0241962890625,-0.7167165875434875,-0.5881396532058716,-0.13467100262641907
1737751668122264600,2.0342646484375,-0.7394615411758423,-0.6404209733009338,-0.15981975197792053
1737751668132332500,2.04433251953125,-0.735598087310791,-0.7012060284614563,-0.17439870536327362
1737751668142400500,2.054400390625,-0.7204790711402893,-0.7631410360336304,-0.18574856221675873
1737751668152468500,2.064468505859375,-0.6894394159317017,-0.8214150071144104,-0.19468213617801666
1737751668162536700,2.07453662109375,-0.659088671207428,-0.8766217827796936,-0.19210019707679749
1737751668172605400,2.08460546875,-0.6363727450370789,-0.9176738858222961,-0.18727055191993713
1737751668182673400,2.09467333984375,-0.6431635022163391,-0.9647780060768127,-0.19263522326946259
1737751668192741600,2.10474169921875,-0.6111600399017334,-1.0129109621047974,-0.1993304193019867
1737751668202809600,2.1148095703125,-0.558879017829895,-1.016150951385498,-0.18883942067623138
1737751668212877600,2.124877685546875,-0.5213564038276672,-1.0049015283584595,-0.1932605355978012
1737751668222945500,2.134945556640625,-0.5174780488014221,-0.9888458251953125,-0.19729416072368622
1737751668233013500,2.145013427734375,-0.5381806492805481,-0.9644057154655457,-0.1978723406791687
1737751668243082500,2.15508251953125,-0.5710552334785461,-0.9308299422264099,-0.18466518819332123
1737751668253150500,2.165150390625,-0.6201484799385071,-0.8985044956207275,-0.16615648567676544
1737751668263218700,2.17521875,-0.668947696685791,-0.8426412343978882,-0.14346209168434143
1737751668273286700,2.18528662109375,-0.7011133432388306,-0.7634968757629395,-0.11990323662757874
1737751668283354600,2.195354736328125,-0.7090508937835693,-0.6612847447395325,-0.09712362289428711
1737751668293422300,2.20542236328125,-0.7003317475318909,-0.5557311177253723,-0.0828714445233345
1737751668303490600,2.215490478515625,-0.6851730346679688,-0.4474289119243622,-0.07625855505466461
1737751668313559600,2.2255595703125,-0.6670800447463989,-0.33125436305999756,-0.06863099336624146
1737751668323627500,2.23562744140625,-0.6459718346595764,-0.21842527389526367,-0.05866198241710663
1737751668333695700,2.24569580078125,-0.6202893853187561,-0.10996165126562119,-0.03842728212475777
1737751668343763700,2.255763671875,-0.5790865421295166,0.010510697960853577,-0.0003203782835043967
1737751668353831400,2.26583154296875,-0.5309946537017822,0.09813082963228226,0.05389438942074776
1737751668363899400,2.2758994140625,-0.47050172090530396,0.14569514989852905,0.10646385699510574
1737751668373967600,2.285967529296875,-0.39741501212120056,0.16561345756053925,0.17161543667316437
1737751668384036600,2.29603662109375,-0.3254084587097168,0.16164535284042358,0.23837928473949432
1737751668394104600,2.3061044921875,-0.24032099545001984,0.15098179876804352,0.30562570691108704
1737751668404172500,2.316172607421875,-0.1587611585855484,0.1403648406267166,0.36617425084114075
1737751668414240500,2.326240478515625,-0.10630859434604645,0.13059529662132263,0.40956196188926697
1737751668424308500,2.33630859375,-0.07417143136262894,0.07778241485357285,0.44104716181755066
1737751668434376400,2.34637646484375,-0.053402237594127655,-0.016028501093387604,0.43631792068481445
1737751668444444400,2.3564443359375,-0.010333864018321037,-0.13488644361495972,0.4182704985141754
1737751668454513700,2.366513671875,0.061217550188302994,-0.21465131640434265,0.3967960774898529
1737751668464581400,2.376581298828125,0.15063504874706268,-0.2079334855079651,0.3687809705734253
1737751668474649300,2.3866494140625,0.2135402411222458,-0.07542818039655685,0.38340890407562256
1737751668484717600,2.396717529296875,0.24268321692943573,0.10121210664510727,0.42861607670783997
1737751668494785500,2.40678564453125,0.2834567427635193,0.24498578906059265,0.48448386788368225
1737751668504853500,2.416853515625,0.30143946409225464,0.3798847496509552,0.5017206072807312
1737751668514921500,2.42692138671875,0.2945288419723511,0.5199757814407349,0.4730900526046753
1737751668524990500,2.436990478515625,0.27934348583221436,0.6265355348587036,0.4055861234664917
1737751668535058400,2.447058349609375,0.2739540636539459,0.6790975332260132,0.3114508390426636
1737751668545126400,2.45712646484375,0.30570533871650696,0.6902000308036804,0.21230000257492065
1737751668555194600,2.467194580078125,0.37407079339027405,0.6773757934570312,0.13177160918712616
1737751668565262600,2.4772626953125,0.45827117562294006,0.6701235175132751,0.07349445670843124
1737751668575330600,2.48733056640625,0.5134702324867249,0.685604989528656,0.023862987756729126
1737751668585398500,2.4973984375,0.5380714535713196,0.7276957035064697,-0.009329319931566715
1737751668595467500,2.507467529296875,0.5474604368209839,0.781098484992981,-0.021862953901290894
1737751668605538600,2.51753857421875,0.5551007986068726,0.8570409417152405,-0.014767227694392204
1737751668615606500,2.5276064453125,0.5551249980926514,0.9607904553413391,0.01050297450274229
1737751668625674500,2.537674560546875,0.5511702299118042,1.1011971235275269,0.0638764500617981
1737751668635742500,2.547742431640625,0.5517270565032959,1.2614171504974365,0.13704814016819
1737751668645810700,2.557810791015625,0.5725769400596619,1.458042860031128,0.23272299766540527
1737751668655878700,2.567878662109375,0.5992115139961243,1.6824994087219238,0.33046606183052063
1737751668665947400,2.577947509765625,0.6265318393707275,1.896238088607788,0.413257896900177
1737751668676015600,2.588015625,0.6533882021903992,2.0705692768096924,0.46456101536750793
1737751668686083600,2.59808349609375,0.6879927515983582,2.1986100673675537,0.48989301919937134
1737751668696151600,2.608151611328125,0.7359699010848999,2.2812912464141846,0.5182951092720032
1737751668706219500,2.618219482421875,0.7892820835113525,2.329719305038452,0.5280912518501282
1737751668716287500,2.62828759765625,0.8371968865394592,2.345510244369507,0.5224717259407043
1737751668726355500,2.63835546875,0.8616985082626343,2.3190062046051025,0.5098435282707214
1737751668736424400,2.648424560546875,0.8623448610305786,2.2448019981384277,0.519890308380127
1737751668746492700,2.65849267578125,0.8532291650772095,2.119344472885132,0.5531135201454163
1737751668756560600,2.668560546875,0.8421698212623596,1.9362815618515015,0.5735538005828857
1737751668766628600,2.678628662109375,0.8605983853340149,1.7128983736038208,0.578978419303894
1737751668776696300,2.6886962890625,0.9288240075111389,1.4871392250061035,0.5644553899765015
1737751668786764500,2.6987646484375,1.0364562273025513,1.2655106782913208,0.5210543870925903
1737751668796832500,2.70883251953125,1.1640583276748657,1.0661784410476685,0.47514575719833374
1737751668806901500,2.718901611328125,1.2662622928619385,0.8617480397224426,0.43591979146003723
1737751668816969700,2.7289697265625,1.312493920326233,0.6485157012939453,0.3979620039463043
1737751668827037700,2.73903759765625,1.2934813499450684,0.43301135301589966,0.353298157453537
1737751668837105400,2.74910546875,1.2424557209014893,0.2555667757987976,0.32415491342544556
1737751668847173400,2.75917333984375,1.1773043870925903,0.1414167881011963,0.2889809310436249
1737751668857241600,2.76924169921875,1.1175504922866821,0.10535678267478943,0.2621519863605499
1737751668867309600,2.7793095703125,1.0501017570495605,0.12719017267227173,0.26137009263038635
1737751668877377500,2.78937744140625,0.9477308988571167,0.19674208760261536,0.2763679325580597
1737751668887446500,2.799446533203125,0.8176690340042114,0.284186452627182,0.2931453287601471
1737751668897514500,2.809514404296875,0.6844755411148071,0.37866130471229553,0.32567423582077026
1737751668907582500,2.81958251953125,0.5657054781913757,0.5019781589508057,0.34477895498275757
1737751668917650400,2.829650390625,0.4800576865673065,0.6506757736206055,0.3624255955219269
1737751668927718700,2.83971875,0.43299615383148193,0.8080992102622986,0.3706481158733368
1737751668937786600,2.84978662109375,0.434221476316452,0.9322070479393005,0.36852264404296875
1737751668947854600,2.8598544921875,0.46453970670700073,1.0051859617233276,0.28938308358192444
1737751668957923300,2.86992333984375,0.5198575854301453,0.9853951334953308,0.16281181573867798
1737751668967991600,2.879991455078125,0.5819851160049438,0.8458604216575623,0.05349678173661232
1737751668978059500,2.8900595703125,0.587958574295044,0.654965341091156,0.00020666129421442747
1737751668988127500,2.90012744140625,0.5082917213439941,0.445427805185318,-0.034441862255334854
1737751668998195700,2.91019580078125,0.40019240975379944,0.20436619222164154,-0.07273305952548981
1737751669008263700,2.920263671875,0.34293684363365173,-0.05666114762425423,-0.08022639900445938
1737751669018331600,2.93033154296875,0.38972538709640503,-0.27607446908950806,-0.00010972223390126601
1737751669028400400,2.940400390625,0.41762492060661316,-0.46104830503463745,0.020351877436041832
1737751669038468600,2.950468505859375,0.3335196375846863,-0.6038070321083069,-0.02971688285470009
1737751669048536600,2.96053662109375,0.13964791595935822,-0.6922796368598938,-0.08696552366018295
1737751669058604500,2.9706044921875,-0.11202267557382584,-0.718325674533844,-0.09066412597894669
1737751669068672500,2.980672607421875,-0.3760508596897125,-0.6668848395347595,-0.0976615771651268
1737751669078740500,2.990740478515625,-0.6336888074874878,-0.5446816682815552,-0.15849190950393677
1737751669088809500,3.0008095703125,-0.8082808256149292,-0.32190611958503723,-0.19691599905490875
1737751669098877400,3.01087744140625,-0.8435251116752625,-0.06131315976381302,-0.14227911829948425
1737751669108945700,3.020945556640625,-0.7458555698394775,0.16150207817554474,-0.05955973267555237
1737751669119013600,3.031013671875,-0.5645803213119507,0.317359060049057,-0.03893221914768219
1737751669129081600,3.04108154296875,-0.3771115839481354,0.4387294352054596,-0.08193081617355347
1737751669139149300,3.0511494140625,-0.24245764315128326,0.4824222922325134,-0.13235723972320557
1737751669149217500,3.061217529296875,-0.19042959809303284,0.37908127903938293,-0.1812659204006195
1737751669159286500,3.07128662109375,-0.2077590525150299,0.14597131311893463,-0.22237075865268707
1737751669169354500,3.0813544921875,-0.26702210307121277,-0.146763876080513,-0.2713630497455597
1737751669179422700,3.091422607421875,-0.32724204659461975,-0.3886265754699707,-0.329129695892334
1737751669189490400,3.101490478515625,-0.3769321143627167,-0.5420216917991638,-0.4123191237449646
1737751669199558400,3.111558349609375,-0.40633419156074524,-0.6114274263381958,-0.5123834013938904
1737751669209626400,3.12162646484375,-0.4153822958469391,-0.6192824244499207,-0.5855428576469421
1737751669219694600,3.131694580078125,-0.4103339910507202,-0.5828213691711426,-0.6447009444236755
1737751669229763600,3.141763671875,-0.3908894658088684,-0.5152382850646973,-0.6782309412956238
1737751669239831600,3.15183154296875,-0.3519705533981323,-0.45986053347587585,-0.667524516582489
1737751669249899500,3.1618994140625,-0.3023180365562439,-0.4314861595630646,-0.6313294768333435
1737751669259967500,3.171967529296875,-0.22395959496498108,-0.42379894852638245,-0.5547924041748047
1737751669270035500,3.182035400390625,-0.1120770052075386,-0.439039945602417,-0.43463748693466187
1737751669280103400,3.192103515625,0.009414540603756905,-0.44033318758010864,-0.27759993076324463
1737751669290172700,3.202172607421875,0.10652058571577072,-0.41257956624031067,-0.07927457988262177
1737751669300240600,3.21224072265625,0.14831329882144928,-0.33899590373039246,0.10351067781448364
1737751669310308400,3.222308349609375,0.12389850616455078,-0.24170103669166565,0.23259836435317993
1737751669320376600,3.23237646484375,0.07180547714233398,-0.16235695779323578,0.2879258096218109
1737751669330444500,3.242444580078125,0.024346884340047836,-0.13424701988697052,0.2954486906528473
1737751669340512500,3.252512451171875,-0.012171445414423943,-0.10257244855165482,0.2696506381034851
1737751669350580500,3.26258056640625,-0.0430675745010376,-0.03400617092847824,0.23095917701721191
1737751669360649500,3.2726494140625,-0.049559563398361206,0.0720297172665596,0.18588198721408844
1737751669370717400,3.282717529296875,-0.05572078749537468,0.198806032538414,0.1547056883573532
1737751669380785400,3.292785400390625,-0.08199845999479294,0.35722336173057556,0.1494813710451126
1737751669390853600,3.302853515625,-0.14665548503398895,0.5430212020874023,0.1798376739025116
1737751669400921600,3.312921630859375,-0.2580272853374481,0.7574352025985718,0.23586419224739075
1737751669410989600,3.322989501953125,-0.404334157705307,0.9930024743080139,0.29922372102737427
1737751669421057500,3.3330576171875,-0.5424765944480896,1.2011569738388062,0.34844133257865906
1737751669431126500,3.34312646484375,-0.6303750276565552,1.3400925397872925,0.3892044723033905
1737751669441194500,3.353194580078125,-0.6591414213180542,1.4211082458496094,0.42592573165893555
1737751669451262500,3.363262451171875,-0.6388829946517944,1.4352552890777588,0.4746703803539276
1737751669461330400,3.373330322265625,-0.5763389468193054,1.3834424018859863,0.520330011844635
1737751669471398700,3.383398681640625,-0.4877720773220062,1.2931164503097534,0.5754159092903137
1737751669481466600,3.393466552734375,-0.4005681872367859,1.1808139085769653,0.6156384348869324
1737751669491534600,3.40353466796875,-0.33167222142219543,1.0423660278320312,0.6537610292434692
1737751669501603600,3.413603515625,-0.2911341190338135,0.8948639035224915,0.6753339767456055
1737751669511671600,3.423671630859375,-0.2657802700996399,0.7555004358291626,0.6864430904388428
1737751669521739500,3.433739501953125,-0.2453322559595108,0.6567504405975342,0.709286630153656
1737751669531807500,3.443807373046875,-0.19407573342323303,0.6099794507026672,0.7771956324577332
1737751669541875700,3.453875732421875,-0.11236835271120071,0.6364478468894958,0.8966293334960938
1737751669551943400,3.463943359375,-0.03364158421754837,0.7361009120941162,1.0234203338623047
1737751669562012400,3.474012451171875,0.020597154274582863,0.9045999050140381,1.1165566444396973
1737751669572080600,3.48408056640625,0.04043237864971161,1.1029329299926758,1.1728942394256592
1737751669582148600,3.494148681640625,0.0011701929615810513,1.259426474571228,1.1878070831298828
1737751669592216600,3.504216552734375,-0.059840165078639984,1.3428651094436646,1.1529098749160767
1737751669602284500,3.514284423828125,-0.08301738649606705,1.3662465810775757,1.0723540782928467
1737751669612349200,3.52434912109375,-0.03350815922021866,1.3393175601959229,0.9658169150352478
1737751669622417200,3.534417236328125,0.07274211198091507,1.3010647296905518,0.846319317817688
1737751669632486100,3.544486083984375,0.1891896277666092,1.2557073831558228,0.6993687152862549
1737751669642554400,3.554554443359375,0.2793871760368347,1.2425262928009033,0.5360607504844666
1737751669652622300,3.564622314453125,0.33837220072746277,1.2716586589813232,0.38102003931999207
1737751669662690000,3.57468994140625,0.3814546763896942,1.3433886766433716,0.2547936737537384
1737751669672758000,3.584758056640625,0.4233089089393616,1.4396891593933105,0.18471792340278625
1737751669682826200,3.594826171875,0.4572860598564148,1.575266718864441,0.1765979379415512
1737751669692895200,3.604895263671875,0.4564493000507355,1.7413007020950317,0.2281343638896942
1737751669702963200,3.614963134765625,0.4132498800754547,1.8892717361450195,0.2840253412723541
1737751669713031200,3.62503125,0.343924880027771,1.9893981218338013,0.3234102725982666
1737751669723099100,3.63509912109375,0.28958946466445923,2.043433427810669,0.3492109775543213
1737751669733167000,3.6451669921875,0.25343626737594604,2.0892226696014404,0.3736468255519867
1737751669743235000,3.655235107421875,0.2132294476032257,2.136551856994629,0.4016323983669281
1737751669753304300,3.66530419921875,0.15921255946159363,2.1814792156219482,0.4451769292354584
1737751669763372300,3.675372314453125,0.12900832295417786,2.2200815677642822,0.5083023905754089
1737751669773440000,3.68543994140625,0.12005263566970825,2.2483108043670654,0.5771765112876892
1737751669783508200,3.69550830078125,0.12694543600082397,2.2634646892547607,0.615963339805603
1737751669793576200,3.705576171875,0.1423606127500534,2.253977060317993,0.6125051975250244
1737751669803644200,3.71564404296875,0.17452546954154968,2.2216086387634277,0.5954239368438721
1737751669813712100,3.725712158203125,0.209639772772789,2.1751132011413574,0.5604881048202515
1737751669823781400,3.735781494140625,0.24295219779014587,2.123538017272949,0.518325686454773
1737751669833849000,3.74584912109375,0.26231658458709717,2.031466484069824,0.4792310297489166
1737751669843917000,3.7559169921875,0.2802082300186157,1.8959169387817383,0.42444103956222534
1737751669853985300,3.7659853515625,0.3244875371456146,1.7246644496917725,0.3534347712993622
1737751669864053200,3.77605322265625,0.39798253774642944,1.5553944110870361,0.3010903298854828
1737751669874121200,3.786121337890625,0.46390801668167114,1.4040135145187378,0.27369174361228943
1737751669884190200,3.796190185546875,0.5264435410499573,1.253296971321106,0.22937913239002228
1737751669894258200,3.806258056640625,0.5828490257263184,1.0891543626785278,0.17655666172504425
1737751669904326100,3.816326171875,0.6575499176979065,0.9164267182350159,0.17755001783370972
1737751669914394000,3.82639404296875,0.7177152633666992,0.75508713722229,0.21573495864868164
1737751669924462000,3.836462158203125,0.7399414777755737,0.5864200592041016,0.28285300731658936
1737751669934530300,3.8465302734375,0.7217592597007751,0.4038052558898926,0.3603869378566742
1737751669944599000,3.85659912109375,0.684325098991394,0.21289043128490448,0.43751075863838196
1737751669954667000,3.8666669921875,0.6468083262443542,0.024117320775985718,0.48448172211647034
1737751669964735200,3.8767353515625,0.6125584840774536,-0.1462956964969635,0.51591956615448
1737751669974803200,3.88680322265625,0.5642796158790588,-0.28071874380111694,0.5275610089302063
1737751669984871200,3.89687109375,0.4937894642353058,-0.3791521191596985,0.5238967537879944
1737751669994939100,3.906939208984375,0.4000813663005829,-0.43800798058509827,0.527502179145813
1737751670005008100,3.917008056640625,0.30169087648391724,-0.4619410037994385,0.5355835556983948
1737751670015076000,3.927076171875,0.21693044900894165,-0.44183918833732605,0.542080283164978
1737751670025144000,3.93714404296875,0.15194931626319885,-0.38131752610206604,0.5489091873168945
1737751670035212300,3.94721240234375,0.1041351929306984,-0.3017691671848297,0.5428909659385681
1737751670045280300,3.9572802734375,0.057133059948682785,-0.17440056800842285,0.5088461637496948
1737751670055348200,3.96734814453125,0.004293015692383051,-0.06836014986038208,0.419839084148407
1737751670065417200,3.977417236328125,-0.05299077928066254,-0.004150536376982927,0.2762552797794342
1737751670075485200,3.987485107421875,-0.10110478103160858,0.027399666607379913,0.11243120580911636
1737751670085553200,3.99755322265625,-0.12462581694126129,0.07207126170396805,-0.03379444777965546
1737751670095621000,4.00762109375,-0.07532750815153122,0.1539408266544342,-0.09279625117778778
1737751670105689300,4.017689453125,0.09250836074352264,0.3388686180114746,-0.03211212903261185
1737751670115757300,4.02775732421875,0.16887663304805756,0.6113198399543762,0.0013997574569657445
1737751670125826000,4.037825927734375,-0.03020024672150612,0.7601841688156128,-0.11938152462244034
1737751670135894300,4.047894287109375,-0.4400157332420349,0.6647636294364929,-0.33640146255493164
1737751670145962200,4.057962158203125,-0.888013482093811,0.4274035394191742,-0.5246832370758057
1737751670156030200,4.0680302734375,-1.2398226261138916,0.29725751280784607,-0.6597781777381897
1737751670166098200,4.07809814453125,-1.4467326402664185,0.3282252848148346,-0.7840239405632019
1737751670176167200,4.088167236328125,-1.502876877784729,0.4741870164871216,-0.8279536366462708
1737751670186235100,4.098235107421875,-1.4363114833831787,0.7296451330184937,-0.8128814697265625
1737751670196303000,4.10830322265625,-1.2395539283752441,0.9990595579147339,-0.7327058911323547
1737751670206371300,4.118371337890625,-0.9261701703071594,1.2211658954620361,-0.6122570037841797
1737751670216439300,4.128439208984375,-0.5140587687492371,1.2815980911254883,-0.5022373199462891
1737751670226507300,4.13850732421875,-0.06654839962720871,1.1276342868804932,-0.4257577061653137
1737751670236576000,4.148575927734375,0.3380046784877777,0.7984641790390015,-0.3617992103099823
1737751670246644200,4.158644287109375,0.6084521412849426,0.33441394567489624,-0.2884256839752197
1737751670256712200,4.168712158203125,0.7150329351425171,-0.21279668807983398,-0.22262614965438843
1737751670266780200,4.1787802734375,0.6951828002929688,-0.7132651209831238,-0.1379898339509964
1737751670276848400,4.188848388671875,0.6022800207138062,-1.010787844657898,-0.024400681257247925
1737751670286917000,4.198917236328125,0.4524569511413574,-1.030554175376892,0.10643988847732544
1737751670296985000,4.208985107421875,0.2647336423397064,-0.7906469702720642,0.24379508197307587
1737751670307053000,4.219052978515625,0.09661868214607239,-0.36143437027931213,0.37728655338287354
1737751670317121300,4.229121337890625,-0.028980785980820656,0.19155478477478027,0.48218315839767456
1737751670327189200,4.239189208984375,-0.10963701456785202,0.8047937154769897,0.5552850365638733
1737751670337257200,4.24925732421875,-0.15575844049453735,1.3853929042816162,0.6025449633598328
1737751670347326200,4.259326171875,-0.19839191436767578,1.8213883638381958,0.6195812225341797
1737751670357394200,4.269394287109375,-0.2601999044418335,2.069666624069214,0.5969475507736206
1737751670367462100,4.279462158203125,-0.3278617560863495,2.1617419719696045,0.5606380105018616
1737751670377530000,4.289530029296875,-0.38516658544540405,2.120269298553467,0.5197139978408813
1737751670387598300,4.299598388671875,-0.4241299629211426,1.972108006477356,0.4790398180484772
1737751670397666300,4.309666259765625,-0.43394264578819275,1.7284480333328247,0.43736961483955383
1737751670407735000,4.319735107421875,-0.4017602205276489,1.4167945384979248,0.38615596294403076
1737751670417803300,4.32980322265625,-0.3350442945957184,1.0918664932250977,0.32990625500679016
1737751670427871200,4.339871337890625,-0.25021836161613464,0.7868413329124451,0.2773463726043701
1737751670437939200,4.349939208984375,-0.17238003015518188,0.5563101172447205,0.2516583204269409
1737751670448007200,4.360007080078125,-0.12317918986082077,0.42613106966018677,0.2611061632633209
1737751670458076200,4.370076171875,-0.10910757631063461,0.4132688045501709,0.3030855655670166
1737751670468144000,4.38014404296875,-0.13714374601840973,0.5041046738624573,0.3693048059940338
1737751670478212000,4.390212158203125,-0.1851261854171753,0.6912814974784851,0.45654943585395813
1737751670488280300,4.4002802734375,-0.22728535532951355,0.9618264436721802,0.5587189197540283
1737751670498348300,4.410348388671875,-0.24903085827827454,1.295973539352417,0.6849386692047119
1737751670508416300,4.420416259765625,-0.26196610927581787,1.6657859086990356,0.8177472949028015
1737751670518485200,4.4304853515625,-0.2821773588657379,2.0089406967163086,0.9424905776977539
1737751670528553200,4.44055322265625,-0.3135935962200165,2.297868251800537,1.0517520904541016
1737751670538621200,4.45062109375,-0.33190256357192993,2.482586145401001,1.144144892692566
1737751670548689200,4.460689208984375,-0.3258904814720154,2.5660653114318848,1.225498080253601
1737751670558757400,4.47075732421875,-0.2911894917488098,2.568997383117676,1.2926589250564575
1737751670568826000,4.480826171875,-0.22416917979717255,2.5219578742980957,1.353646993637085
1737751670578894000,4.49089404296875,-0.04556642100214958,2.495454788208008,1.4565768241882324
1737751670588962300,4.50096240234375,0.15491661429405212,2.5356521606445312,1.5726439952850342
1737751670599030300,4.5110302734375,0.06446713954210281,2.4507670402526855,1.496599793434143
1737751670609101600,4.5211015625,-0.31140023469924927,2.1687943935394287,1.2357908487319946
1737751670619170300,4.53117041015625,-0.6991812586784363,1.7493295669555664,0.9610093832015991
1737751670629238500,4.541238525390625,-0.8748907446861267,1.2893625497817993,0.7461436986923218
1737751670639306500,4.551306396484375,-0.7947714328765869,0.9765851497650146,0.5855678915977478
1737751670649374500,4.56137451171875,-0.5763067007064819,0.9305713176727295,0.4551890790462494
1737751670659442400,4.5714423828125,-0.35071462392807007,1.1145131587982178,0.3634178936481476
1737751670669510700,4.5815107421875,-0.21667344868183136,1.374141812324524,0.32266566157341003
1737751670679579400,4.591579345703125,-0.19243256747722626,1.616943359375,0.3081274628639221
1737751670689647400,4.6016474609375,-0.2082994133234024,1.7919387817382812,0.29061639308929443
1737751670699715600,4.611715576171875,-0.20118530094623566,1.8300124406814575,0.2612401247024536
1737751670709783600,4.621783447265625,-0.15830868482589722,1.71632981300354,0.24396100640296936
1737751670719851500,4.6318515625,-0.08658096194267273,1.5313026905059814,0.23150353133678436
1737751670729920500,4.64192041015625,-0.018020812422037125,1.373458981513977,0.24133431911468506
1737751670739988500,4.651988525390625,0.043715257197618484,1.3082072734832764,0.2606494426727295
1737751670750056400,4.662056396484375,0.09261808544397354,1.3555710315704346,0.2938039302825928
1737751670760124400,4.67212451171875,0.13768702745437622,1.481657862663269,0.330284982919693
1737751670770192600,4.682192626953125,0.1626933068037033,1.6242609024047852,0.35620978474617004
1737751670780260600,4.692260498046875,0.1707829236984253,1.754292607307434,0.3752870559692383
1737751670790329300,4.702329345703125,0.18673765659332275,1.8603730201721191,0.3985966444015503
1737751670800397600,4.7123974609375,0.22442112863063812,1.9264692068099976,0.4190260171890259
1737751670810465500,4.722465576171875,0.2831805646419525,1.9347281455993652,0.4311114549636841
1737751670820533500,4.732533447265625,0.35530057549476624,1.8739277124404907,0.4043557345867157
1737751670830601500,4.7426015625,0.42450574040412903,1.7611926794052124,0.37470197677612305
1737751670840670500,4.75267041015625,0.48858779668807983,1.6052299737930298,0.32598236203193665
1737751670850738400,4.762738525390625,0.5477784276008606,1.435683250427246,0.2897266149520874
1737751670860806400,4.772806396484375,0.6051855087280273,1.2662718296051025,0.26027712225914
1737751670870874600,4.78287451171875,0.6736844182014465,1.102304458618164,0.2416866570711136
1737751670880942600,4.792942626953125,0.7430283427238464,0.9594791531562805,0.23987650871276855
1737751670891010600,4.803010498046875,0.8104023337364197,0.8186690211296082,0.24143418669700623
1737751670901079300,4.813079345703125,0.86030113697052,0.705117404460907,0.24149730801582336
1737751670911147500,4.8231474609375,0.8957377076148987,0.6268327236175537,0.2420845329761505
1737751670921215500,4.833215576171875,0.9064686298370361,0.5799776315689087,0.2581958770751953
1737751670931283500,4.843283447265625,0.8926476240158081,0.5533074140548706,0.2866126000881195
1737751670941351400,4.853351318359375,0.8534403443336487,0.552308976650238,0.33697643876075745
1737751670951420700,4.863420654296875,0.7953264117240906,0.5638910531997681,0.4003143906593323
1737751670961488400,4.87348828125,0.7429414987564087,0.5948684215545654,0.4553861618041992
1737751670971556400,4.883556396484375,0.7032049894332886,0.6335446834564209,0.49320197105407715
1737751670981624600,4.89362451171875,0.6752543449401855,0.6747904419898987,0.520848274230957
1737751670991692500,4.903692626953125,0.6560268402099609,0.7365738749504089,0.5299461483955383
1737751671001761500,4.913761474609375,0.6412809491157532,0.8042815923690796,0.5376224517822266
1737751671011829500,4.92382958984375,0.6454996466636658,0.872628927230835,0.539374828338623
1737751671021897500,4.9338974609375,0.6783143281936646,0.941895067691803,0.5312724113464355
1737751671031965400,4.94396533203125,0.7313644886016846,1.0101960897445679,0.5094168782234192
1737751671042033400,4.954033447265625,0.7816276550292969,1.0691540241241455,0.47796016931533813
1737751671052101600,4.9641015625,0.8149147629737854,1.1106436252593994,0.4359104633331299
1737751671062170600,4.974170654296875,0.8606129884719849,1.13323974609375,0.42424848675727844
1737751671072238300,4.98423828125,0.9603390693664551,1.1773637533187866,0.46450430154800415
1737751671082306600,4.994306640625,1.0179003477096558,1.207585334777832,0.48648175597190857
1737751671092374500,5.00437451171875,0.8812029957771301,1.105591893196106,0.455292671918869
1737751671102442500,5.0144423828125,0.6028730869293213,0.8468884229660034,0.38464435935020447
1737751671112511700,5.02451171875,0.3349258005619049,0.5634809136390686,0.3001731336116791
1737751671122579500,5.034579345703125,0.18477784097194672,0.4527246057987213,0.24205097556114197
1737751671132647400,5.0446474609375,0.1820662021636963,0.5848775506019592,0.23142443597316742
1737751671142715400,5.05471533203125,0.2862602472305298,0.8875852227210999,0.2450217306613922
1737751671152783600,5.06478369140625,0.44101041555404663,1.2395131587982178,0.24175883829593658
1737751671162852600,5.0748525390625,0.6059697866439819,1.5479741096496582,0.2046618014574051
1737751671172920600,5.084920654296875,0.7386628985404968,1.709600806236267,0.13674719631671906
1737751671182988500,5.094988525390625,0.804779589176178,1.6863261461257935,0.0557977519929409
1737751671193056500,5.105056396484375,0.8018820881843567,1.4988433122634888,-0.009953830391168594
1737751671203124500,5.11512451171875,0.7133298516273499,1.2324877977371216,-0.05035265162587166
1737751671213193500,5.125193359375,0.5436158776283264,0.9523900747299194,-0.04397651180624962
1737751671223261700,5.13526171875,0.3352040946483612,0.7577508091926575,-0.007646734360605478
1737751671233329400,5.145329345703125,0.15728576481342316,0.6623142957687378,0.013277988880872726
1737751671243397400,5.1553974609375,0.08389623463153839,0.6478432416915894,0.012446816079318523
1737751671253465300,5.16546533203125,0.11941774189472198,0.6650051474571228,-0.003855990944430232
1737751671263533600,5.175533447265625,0.20524875819683075,0.7166640758514404,-0.024102939292788506
1737751671273602600,5.1856025390625,0.2823949456214905,0.7900581359863281,-0.050866641104221344
1737751671283670500,5.19567041015625,0.32165953516960144,0.8428377509117126,-0.07471391558647156
1737751671293738500,5.205738525390625,0.315757691860199,0.8453413844108582,-0.10486330091953278
1737751671303806500,5.215806396484375,0.29169443249702454,0.808971107006073,-0.16423821449279785
1737751671313874400,5.22587451171875,0.27882498502731323,0.721388041973114,-0.2638673186302185
1737751671323943700,5.235943603515625,0.2823403477668762,0.5599650144577026,-0.3971114158630371
1737751671334011600,5.24601171875,0.30180272459983826,0.3326309621334076,-0.5544352531433105
1737751671344079600,5.25607958984375,0.31877532601356506,0.08934106677770615,-0.6881067752838135
1737751671354147300,5.266147216796875,0.3255104422569275,-0.1196153461933136,-0.8021156191825867
1737751671364215600,5.276215576171875,0.33431485295295715,-0.3199194073677063,-0.8818599581718445
1737751671374284500,5.286284423828125,0.3509228825569153,-0.45821815729141235,-0.8778386116027832
1737751671384352500,5.2963525390625,0.3449355363845825,-0.5137932896614075,-0.7939599752426147
1737751671394420700,5.306420654296875,0.3343934416770935,-0.4583563804626465,-0.723716139793396
1737751671404488400,5.316488525390625,0.3458394408226013,-0.35351091623306274,-0.6615276336669922
1737751671414556400,5.326556396484375,0.3798615634441376,-0.25666719675064087,-0.5430305004119873
1737751671424624400,5.336624267578125,0.40790438652038574,-0.1203615665435791,-0.3991931974887848
1737751671434693600,5.346693603515625,0.3998752236366272,0.06260079890489578,-0.28871676325798035
1737751671444761600,5.35676171875,0.36521393060684204,0.22546827793121338,-0.2370450347661972
1737751671454829600,5.36682958984375,0.32239827513694763,0.3008687496185303,-0.2374224066734314
1737751671464897500,5.3768974609375,0.28510046005249023,0.31101858615875244,-0.27359479665756226
1737751671474965500,5.386965576171875,0.25631433725357056,0.2707686424255371,-0.35067039728164673
1737751671485034500,5.397034423828125,0.23940247297286987,0.18438050150871277,-0.4544370174407959
1737751671495102700,5.407102783203125,0.25706082582473755,0.1082812026143074,-0.521160364151001
1737751671505170700,5.417170654296875,0.2683377265930176,0.08710001409053802,-0.5569165349006653
1737751671515238400,5.42723828125,0.2500268816947937,0.09343381226062775,-0.5835113525390625
1737751671525306400,5.437306396484375,0.20989809930324554,0.10350295901298523,-0.5851758718490601
1737751671535375600,5.447375732421875,0.16044853627681732,0.11055713891983032,-0.5514021515846252
1737751671545443600,5.457443603515625,0.1082143560051918,0.1364302784204483,-0.48287078738212585
1737751671555511600,5.467511474609375,0.04548146575689316,0.190045565366745,-0.3899317979812622
1737751671565579500,5.47757958984375,-0.011954396963119507,0.2913074791431427,-0.2612544894218445
1737751671575647500,5.4876474609375,-0.05931711941957474,0.39731088280677795,-0.15561862289905548
1737751671585715500,5.497715576171875,-0.07342734187841415,0.4435092508792877,-0.057553041726350784
1737751671595784400,5.507784423828125,-0.07541219890117645,0.422898530960083,0.011712582781910896
1737751671605852700,5.517852783203125,-0.08827047049999237,0.3839271664619446,0.028387432917952538
1737751671615921000,5.5279208984375,-0.0845540314912796,0.34545886516571045,0.026159964501857758
1737751671625988900,5.53798876953125,-0.05718152970075607,0.3076004385948181,0.02148185670375824
1737751671636056800,5.548056884765625,-0.011530156247317791,0.2692255973815918,0.003157177474349737
1737751671646126000,5.5581259765625,0.027669444680213928,0.23545752465724945,-0.013939517550170422
1737751671656194000,5.568194091796875,0.04314747080206871,0.22024688124656677,-0.033490583300590515
1737751671666262000,5.578261962890625,0.025111211463809013,0.2378397285938263,-0.06054110825061798
1737751671676329700,5.588329833984375,-0.016766728833317757,0.2912081480026245,-0.08513487130403519
1737751671686398000,5.59839794921875,-0.09370704740285873,0.37883493304252625,-0.10644255578517914
1737751671696466000,5.6084658203125,-0.18452855944633484,0.47480592131614685,-0.12953908741474152
1737751671706535000,5.618534912109375,-0.27793920040130615,0.5714901089668274,-0.134456604719162
1737751671716603100,5.62860302734375,-0.3537788391113281,0.6580948233604431,-0.11068736761808395
1737751671726671000,5.638671142578125,-0.39237576723098755,0.7512924075126648,-0.019758524373173714
1737751671736738800,5.64873876953125,-0.40603646636009216,0.866727888584137,0.18256741762161255
1737751671746806800,5.658806884765625,-0.40906792879104614,0.9790813326835632,0.42616623640060425
1737751671756876000,5.6688759765625,-0.42667967081069946,1.0724594593048096,0.643384575843811
1737751671766944000,5.678944091796875,-0.4430842101573944,1.1217199563980103,0.7926526069641113
1737751671777012000,5.689011962890625,-0.45358559489250183,1.09305739402771,0.8727123141288757
1737751671787080000,5.699079833984375,-0.440123587846756,0.988885760307312,0.884660542011261
1737751671797148000,5.70914794921875,-0.401793509721756,0.8574254512786865,0.8531710505485535
1737751671807215900,5.7192158203125,-0.3385399580001831,0.7547861933708191,0.8108760714530945
1737751671817285000,5.72928515625,-0.267526775598526,0.7119154334068298,0.772277295589447
1737751671827353000,5.73935302734375,-0.1912519782781601,0.7603399157524109,0.7505959868431091
1737751671837421000,5.749421142578125,-0.12195946276187897,0.8826775550842285,0.7312856316566467
1737751671847488800,5.75948876953125,-0.06070835515856743,1.044162631034851,0.6888574957847595
1737751671857557000,5.769556884765625,-0.029773341491818428,1.197123408317566,0.6312234997749329
1737751671867626000,5.7796259765625,-0.04200124740600586,1.3075162172317505,0.5838064551353455
1737751671877694000,5.78969384765625,-0.09981954097747803,1.3424736261367798,0.569125235080719
1737751671887762000,5.799761962890625,-0.1667647510766983,1.3128728866577148,0.5660846829414368
1737751671897830000,5.809829833984375,-0.1994670331478119,1.256587028503418,0.5790306329727173
1737751671907897900,5.81989794921875,-0.1745118796825409,1.1945470571517944,0.5953453779220581
1737751671917965800,5.8299658203125,-0.12432967126369476,1.1303470134735107,0.6144823431968689
1737751671928035000,5.84003515625,-0.07541060447692871,1.0663280487060547,0.6391027569770813
1737751671938103000,5.85010302734375,-0.06298242509365082,0.967206597328186,0.6515463590621948
1737751671948171000,5.8601708984375,-0.08994214236736298,0.8157041072845459,0.6303457021713257
1737751671958238700,5.87023876953125,-0.13787584006786346,0.593257486820221,0.5873039960861206
1737751671968307000,5.880306884765625,-0.19135265052318573,0.32552963495254517,0.5111623406410217
1737751671978376000,5.8903759765625,-0.21981465816497803,0.05699218064546585,0.39907601475715637
1737751671988444000,5.90044384765625,-0.23670335114002228,-0.1716063767671585,0.2854085862636566
1737751671998512000,5.91051220703125,-0.2542802095413208,-0.31201568245887756,0.20029234886169434
1737751672008580000,5.920580078125,-0.27563849091529846,-0.35436099767684937,0.14320482313632965
1737751672018647800,5.930647705078125,-0.3070414364337921,-0.3149417042732239,0.10753471404314041
1737751672028715800,5.9407158203125,-0.3285789489746094,-0.22147992253303528,0.08688350021839142
1737751672038785000,5.950784912109375,-0.33376625180244446,-0.1346811205148697,0.06905576586723328
1737751672048853000,5.96085302734375,-0.31866639852523804,-0.07784872502088547,0.060136307030916214
1737751672058921000,5.9709208984375,-0.29742875695228577,-0.048054344952106476,0.05348905920982361
1737751672068989000,5.980989013671875,-0.2801792025566101,-0.040470995008945465,0.0523417666554451
1737751672079057000,5.991056884765625,-0.2531110942363739,-0.05937783792614937,0.059304069727659225
1737751672089126000,6.0011259765625,-0.20142126083374023,-0.09318719804286957,0.05427362397313118
1737751672099194000,6.011194091796875,-0.11010626703500748,-0.13564197719097137,-0.01357253361493349
1737751672109262000,6.021261962890625,0.008224906399846077,-0.2016604095697403,-0.11405333131551743
1737751672119330000,6.031330078125,0.1026265099644661,-0.29221001267433167,-0.19602809846401215
1737751672129397800,6.041397705078125,0.1441827416419983,-0.36886724829673767,-0.23815637826919556
1737751672139466000,6.051466064453125,0.1623992919921875,-0.3910615146160126,-0.22013503313064575
1737751672149535000,6.061534912109375,0.18148671090602875,-0.3568292260169983,-0.14654682576656342
1737751672159603000,6.07160302734375,0.21486356854438782,-0.2840240001678467,-0.054065100848674774
1737751672169671200,6.081671142578125,0.23882536590099335,-0.19099871814250946,0.006761233322322369
1737751672179739000,6.09173876953125,0.2538812756538391,-0.11806885153055191,0.024265924468636513
1737751672189806800,6.101806884765625,0.25553271174430847,-0.06884138286113739,0.01973375678062439
1737751672199875800,6.111875732421875,0.253102570772171,-0.034200578927993774,0.023849140852689743
1737751672209944000,6.121944091796875,0.24337270855903625,0.00047164582065306604,0.04273521155118942
1737751672220012000,6.132011962890625,0.2237505316734314,0.02726411074399948,0.07248139381408691
1737751672230080000,6.142080078125,0.20076505839824677,0.05216227099299431,0.11300325393676758
1737751672240147700,6.152147705078125,0.1525522619485855,0.09181514382362366,0.1518172323703766
1737751672250216000,6.1622158203125,0.07650915533304214,0.13191914558410645,0.17625918984413147
1737751672260285000,6.172284912109375,0.013137905858457088,0.1572308987379074,0.18903836607933044
1737751672270353000,6.182352783203125,-0.007880826480686665,0.1595371961593628,0.19528986513614655
1737751672280421000,6.192421142578125,0.02046506106853485,0.163426473736763,0.19836075603961945
1737751672290488800,6.20248876953125,0.08310473710298538,0.19681905210018158,0.2132699340581894
1737751672300556800,6.212556884765625,0.16416150331497192,0.25581181049346924,0.2474215179681778
1737751672310624800,6.222624755859375,0.24492773413658142,0.31330811977386475,0.2983132004737854
1737751672320694000,6.232694091796875,0.30902814865112305,0.32540684938430786,0.3521660268306732
1737751672330762000,6.242761962890625,0.35158199071884155,0.25363707542419434,0.38015398383140564
1737751672340830000,6.252829833984375,0.3932591378688812,0.11502325534820557,0.3936498165130615
1737751672350898000,6.26289794921875,0.4316864311695099,-0.06085243076086044,0.38580310344696045
1737751672360966000,6.2729658203125,0.4674620032310486,-0.24527420103549957,0.35595571994781494
1737751672371033900,6.283033935546875,0.5135623812675476,-0.42073604464530945,0.3338216543197632
1737751672381103000,6.29310302734375,0.5661853551864624,-0.57405024766922,0.3118164837360382
1737751672391171000,6.303171142578125,0.6229037642478943,-0.6965993046760559,0.2964566946029663
1737751672401239000,6.313239013671875,0.677241325378418,-0.7960987091064453,0.27694106101989746
1737751672411306800,6.323306640625,0.7167080640792847,-0.86155766248703,0.24902819097042084
1737751672421375000,6.333375,0.7392229437828064,-0.89749675989151,0.2258024960756302
1737751672431444000,6.34344384765625,0.7493434548377991,-0.9080079793930054,0.20535261929035187
1737751672441512000,6.353511962890625,0.7485237717628479,-0.9023708701133728,0.17481867969036102
1737751672451580200,6.363580078125,0.7276147603988647,-0.8916487097740173,0.13595570623874664
1737751672461648000,6.37364794921875,0.6811231374740601,-0.8522325754165649,0.11170709133148193
1737751672471715800,6.3837158203125,0.6087075471878052,-0.7845776081085205,0.11235343664884567
1737751672481783800,6.39378369140625,0.5081369876861572,-0.6829498410224915,0.13594397902488708
1737751672491853000,6.40385302734375,0.4083094596862793,-0.5681095123291016,0.16832669079303741
1737751672501921000,6.413921142578125,0.3442825376987457,-0.4466898739337921,0.22538518905639648
1737751672511989000,6.423989013671875,0.3193250000476837,-0.3144253194332123,0.28624188899993896
1737751672522057000,6.434056884765625,0.33241257071495056,-0.18645749986171722,0.33842653036117554
1737751672532125000,6.444125,0.3500216603279114,-0.05609522759914398,0.37133947014808655
1737751672542193000,6.45419287109375,0.3623046875,0.055751677602529526,0.3907824158668518
1737751672552262000,6.464261962890625,0.33194252848625183,0.14302772283554077,0.3884026110172272
1737751672562330000,6.474330078125,0.2771482467651367,0.1872503161430359,0.3672616183757782
1737751672572397800,6.484397705078125,0.21532748639583588,0.1767026036977768,0.3328101933002472
1737751672582465800,6.4944658203125,0.18400205671787262,0.13234259188175201,0.28629887104034424
1737751672592534000,6.504533935546875,0.1898287832736969,0.07787216454744339,0.23899208009243011
1737751672602602000,6.51460205078125,0.21496929228305817,0.0486583486199379,0.18623538315296173
1737751672612667100,6.524667236328125,0.22744540870189667,0.05957943946123123,0.1395818591117859
1737751672622735000,6.534735107421875,0.194172665476799,0.10102301836013794,0.09802643209695816
1737751672632803000,6.544802978515625,0.1227986216545105,0.14267726242542267,0.06300879269838333
1737751672642871000,6.55487109375,0.041010282933712006,0.17420323193073273,0.03338964655995369
1737751672652939000,6.56493896484375,-0.025306155905127525,0.19674448668956757,0.01655474118888378
1737751672663008000,6.575008056640625,-0.0625094473361969,0.2308739572763443,0.007994809187948704
1737751672673076000,6.585075927734375,-0.07334771752357483,0.2780981957912445,-0.0049004824832081795
1737751672683144200,6.595144287109375,-0.08103333413600922,0.32788971066474915,-0.02155376225709915
1737751672693212200,6.605212158203125,-0.10455144196748734,0.3543649911880493,-0.05079846456646919
1737751672703279900,6.61527978515625,-0.13074283301830292,0.33898603916168213,-0.09887757897377014
1737751672713348000,6.62534814453125,-0.1413440853357315,0.2798694670200348,-0.15489503741264343
1737751672723417000,6.6354169921875,-0.11850374191999435,0.18438555300235748,-0.22214944660663605
1737751672733485000,6.645485107421875,-0.06004629284143448,0.08343364298343658,-0.2894887924194336
1737751672743553000,6.655552978515625,-0.04428970068693161,-0.037821680307388306,-0.3535514175891876
1737751672753621000,6.66562109375,-0.14292998611927032,-0.15414349734783173,-0.40096765756607056
1737751672763689000,6.67568896484375,-0.3460138738155365,-0.224956676363945,-0.40730172395706177
1737751672773757000,6.6857568359375,-0.5482606887817383,-0.22441206872463226,-0.3885229825973511
1737751672783826200,6.695826171875,-0.6631598472595215,-0.1277555674314499,-0.3601137101650238
1737751672793894100,6.70589404296875,-0.6677575707435608,0.06867280602455139,-0.34528255462646484
1737751672803962000,6.715962158203125,-0.6087059378623962,0.33137473464012146,-0.3380294442176819
1737751672814029800,6.72602978515625,-0.5325331687927246,0.6148890256881714,-0.3407381474971771
1737751672824098000,6.73609814453125,-0.4584064483642578,0.8478764295578003,-0.3468940258026123
1737751672834166000,6.746166015625,-0.3944929838180542,0.9880356788635254,-0.3525628447532654
1737751672844235000,6.756235107421875,-0.354945570230484,1.0180423259735107,-0.3631792664527893
1737751672854303200,6.76630322265625,-0.3311760723590851,0.9455785155296326,-0.3586404323577881
1737751672864371000,6.776370849609375,-0.32150933146476746,0.7912179827690125,-0.34289902448654175
1737751672874439000,6.78643896484375,-0.3174000680446625,0.5837609171867371,-0.3343702554702759
1737751672884507000,6.7965068359375,-0.3118652105331421,0.3517886698246002,-0.33156993985176086
1737751672894575000,6.8065751953125,-0.28866374492645264,0.13335059583187103,-0.3294367492198944
1737751672904644000,6.81664404296875,-0.2598382234573364,-0.023670975118875504,-0.32203102111816406
1737751672914712000,6.826712158203125,-0.2368341088294983,-0.1258668452501297,-0.30043864250183105
1737751672924780000,6.836780029296875,-0.23762160539627075,-0.15779335796833038,-0.2701667845249176
1737751672934848000,6.846847900390625,-0.2638595998287201,-0.12728871405124664,-0.2087947577238083
1737751672944916000,6.856916015625,-0.2948707938194275,-0.0436159186065197,-0.12334723770618439
1737751672954984000,6.86698388671875,-0.31667834520339966,0.09247507154941559,-0.033430662006139755
1737751672965053200,6.87705322265625,-0.3115653395652771,0.26575419306755066,0.04692969098687172
1737751672975121000,6.887120849609375,-0.2937477231025696,0.4655269384384155,0.11540248990058899
1737751672985188900,6.89718896484375,-0.28323304653167725,0.662079393863678,0.16488482058048248
1737751672995257000,6.907257080078125,-0.27836692333221436,0.8331015110015869,0.205362468957901
1737751673005325000,6.917324951171875,-0.27585369348526,0.9570301175117493,0.23525619506835938
1737751673015393000,6.92739306640625,-0.270477831363678,1.0356231927871704,0.25046178698539734
1737751673025462300,6.937462158203125,-0.25967711210250854,1.0697976350784302,0.26140764355659485
1737751673035530000,6.947530029296875,-0.2387012541294098,1.0642417669296265,0.26860669255256653
1737751673045598000,6.957597900390625,-0.2157866209745407,1.020494818687439,0.26782771944999695
1737751673055666000,6.967666015625,-0.19205306470394135,0.9506621956825256,0.27088022232055664
1737751673065734100,6.977734130859375,-0.16989237070083618,0.8693023920059204,0.27819114923477173
1737751673075802000,6.987802001953125,-0.15104304254055023,0.7918691039085388,0.2819523215293884
1737751673085871000,6.99787109375,-0.13854056596755981,0.729841947555542,0.2843877971172333
1737751673095938800,7.007938720703125,-0.130416601896286,0.6781151294708252,0.2879162132740021
1737751673106007000,7.018007080078125,-0.12394804507493973,0.6441465020179749,0.28612443804740906
1737751673116075000,7.028074951171875,-0.1196984350681305,0.6165348291397095,0.281907856464386
1737751673126143000,7.03814306640625,-0.10800662636756897,0.6038461923599243,0.2717668116092682
1737751673136211000,7.0482109375,-0.09218212217092514,0.6051580905914307,0.2624281644821167
1737751673146280000,7.058280029296875,-0.0835510864853859,0.63435298204422,0.25643232464790344
1737751673156348000,7.068347900390625,-0.0860709697008133,0.688454806804657,0.24407018721103668
1737751673166416000,7.078415771484375,-0.10234580934047699,0.7538918852806091,0.22884222865104675
1737751673176484000,7.088484130859375,-0.12276213616132736,0.8152521848678589,0.21020835638046265
1737751673186552000,7.098552001953125,-0.14225195348262787,0.8681129813194275,0.1900884509086609
1737751673196620000,7.1086201171875,-0.16536685824394226,0.9096940159797668,0.16305869817733765
1737751673206689000,7.11868896484375,-0.1974177360534668,0.9399440288543701,0.13659672439098358
1737751673216757000,7.128757080078125,-0.23784132301807404,0.9651234745979309,0.10238736122846603
1737751673226825000,7.138824951171875,-0.27590882778167725,0.9855110049247742,0.05663744732737541
1737751673236893000,7.148892822265625,-0.2812039852142334,0.9871163368225098,0.02484489604830742
1737751673246961200,7.158961181640625,-0.22845634818077087,0.9910996556282043,-0.00038642468280158937
1737751673257029000,7.169029052734375,-0.11364800482988358,1.002339243888855,-0.004285026341676712
1737751673267097900,7.179097900390625,0.07665323466062546,1.0193904638290405,0.034033868461847305
1737751673277166000,7.189166015625,0.28722670674324036,1.0800542831420898,0.0846235379576683
1737751673287234000,7.199234130859375,0.4357229769229889,1.0702428817749023,0.12981285154819489
1737751673297302000,7.209302001953125,0.4674375057220459,0.996735692024231,0.17197895050048828
1737751673307370000,7.219369873046875,0.3651665151119232,0.8598297834396362,0.20000526309013367
1737751673317438200,7.229438232421875,0.19594714045524597,0.6835594177246094,0.2246331125497818
1737751673327507000,7.2395068359375,0.07350511103868484,0.5420331954956055,0.25562751293182373
1737751673337575000,7.249574951171875,0.06278082728385925,0.46299880743026733,0.2840828597545624
1737751673347643100,7.25964306640625,0.16077423095703125,0.4427092373371124,0.31584078073501587
1737751673357711000,7.269711181640625,0.3086952567100525,0.46854695677757263,0.34009498357772827
1737751673367779000,7.279779052734375,0.42953139543533325,0.5185962915420532,0.35702842473983765
1737751673377847000,7.289846923828125,0.4688977003097534,0.5461602807044983,0.36374518275260925
1737751673387916000,7.299916015625,0.4146704375743866,0.5342836380004883,0.3473348021507263
1737751673397984000,7.30998388671875,0.28220319747924805,0.47625869512557983,0.31708526611328125
1737751673408052000,7.320052001953125,0.10837707668542862,0.41593223810195923,0.28508260846138
1737751673418120200,7.3301201171875,-0.05025811120867729,0.40806764364242554,0.2556048631668091
1737751673428188200,7.340188232421875,-0.12681493163108826,0.4684351086616516,0.22764727473258972
1737751673438256000,7.350256103515625,-0.12410863488912582,0.5649728178977966,0.1918077915906906
1737751673448324900,7.360324951171875,-0.08005275577306747,0.6825106739997864,0.1397419273853302
1737751673458393000,7.37039306640625,-0.024176442995667458,0.792536735534668,0.08118832856416702
1737751673468461000,7.3804609375,-0.002650644164532423,0.8595248460769653,0.00509808911010623
1737751673478529000,7.390529052734375,-0.014609835110604763,0.8596026301383972,-0.07493682205677032
1737751673488597000,7.400596923828125,-0.06210917606949806,0.8060320615768433,-0.16615141928195953
1737751673498665200,7.410665283203125,-0.12542690336704254,0.695919930934906,-0.25987765192985535
1737751673508733000,7.42073291015625,-0.17892953753471375,0.5741043090820312,-0.3369247615337372
1737751673518802000,7.430802001953125,-0.19928887486457825,0.48433420062065125,-0.39945098757743835
1737751673528870100,7.4408701171875,-0.18106380105018616,0.4379371404647827,-0.43050771951675415
1737751673538938000,7.450938232421875,-0.1350899040699005,0.43604469299316406,-0.42986828088760376
1737751673549006000,7.461006103515625,-0.08310633897781372,0.45604637265205383,-0.4088716506958008
1737751673559074000,7.471073974609375,-0.043957870453596115,0.4689427316188812,-0.3780607581138611
1737751673569142000,7.48114208984375,-0.03507889062166214,0.4751739799976349,-0.33868858218193054
1737751673579211000,7.4912109375,-0.04381086304783821,0.4772928059101105,-0.28984567523002625
1737751673589279000,7.501279052734375,-0.0637427568435669,0.4879355728626251,-0.23839285969734192
1737751673599347200,7.51134716796875,-0.08061867952346802,0.5109748840332031,-0.18055219948291779
1737751673609415200,7.521415283203125,-0.09943630546331406,0.5447463989257812,-0.11132146418094635
1737751673619483400,7.5314833984375,-0.13124990463256836,0.5937331318855286,-0.04102066904306412
1737751673629551400,7.54155126953125,-0.16854746639728546,0.6424875855445862,0.0324237197637558
1737751673639620600,7.55162060546875,-0.19414417445659637,0.6827548742294312,0.09569483250379562
1737751673649688600,7.5616884765625,-0.20349480211734772,0.7108349800109863,0.13934271037578583
1737751673659756500,7.571756591796875,-0.1990198940038681,0.7206295728683472,0.15754248201847076
1737751673669824300,7.58182421875,-0.189930260181427,0.7072048187255859,0.15843410789966583
1737751673679892500,7.591892578125,-0.18007096648216248,0.6667420864105225,0.145346537232399
1737751673689960400,7.60196044921875,-0.16624464094638824,0.5834096670150757,0.10788971185684204
1737751673700028400,7.6120283203125,-0.14047110080718994,0.4572809934616089,0.03127163648605347
1737751673710097700,7.62209765625,-0.1153191328048706,0.2948654592037201,-0.07002968341112137
1737751673720165400,7.632165283203125,-0.10738904029130936,0.12108727544546127,-0.1881805658340454
1737751673730233300,7.6422333984375,-0.1248367428779602,-0.052744172513484955,-0.3118891716003418
1737751673740301300,7.65230126953125,-0.16696316003799438,-0.20438456535339355,-0.42420294880867004
1737751673750369500,7.66236962890625,-0.2023634910583496,-0.31659287214279175,-0.502914547920227
1737751673760437500,7.6724375,-0.1863725334405899,-0.34066757559776306,-0.5273846983909607
1737751673770506500,7.682506591796875,-0.10492561757564545,-0.2784481346607208,-0.5031906962394714
1737751673780574500,7.692574462890625,0.03744830563664436,-0.13950996100902557,-0.4300549626350403
1737751673790642400,7.702642333984375,0.24384808540344238,0.040887244045734406,-0.34287479519844055
1737751673800710400,7.71271044921875,0.49311357736587524,0.2163488119840622,-0.26853638887405396
1737751673810778400,7.7227783203125,0.7055419683456421,0.3372320830821991,-0.2171940952539444
1737751673820846600,7.7328466796875,0.7999997138977051,0.39085325598716736,-0.18524043262004852
1737751673830915300,7.742915283203125,0.7360593676567078,0.3665098249912262,-0.164790540933609
1737751673840983300,7.7529833984375,0.5341163873672485,0.25978896021842957,-0.13957707583904266
1737751673851051300,7.76305126953125,0.28275659680366516,0.09905307739973068,-0.10418765246868134
1737751673861119500,7.773119384765625,0.05532237887382507,-0.058272093534469604,-0.06677556782960892
1737751673871187500,7.7831875,-0.06932341307401657,-0.1511562317609787,-0.03382188081741333
1737751673881255400,7.79325537109375,-0.07103262841701508,-0.1568460762500763,-0.013436446897685528
1737751673891323600,7.80332373046875,0.028865735977888107,-0.09915720671415329,-0.003811249742284417
1737751673901392400,7.813392333984375,0.16441744565963745,-0.010423612780869007,-0.0323675274848938
1737751673911460400,7.82346044921875,0.260951429605484,0.05264190584421158,-0.1047826036810875
1737751673921528300,7.8335283203125,0.2921338677406311,0.05937277898192406,-0.22218327224254608
1737751673931596500,7.843596435546875,0.276118665933609,-0.010222011245787144,-0.34722721576690674
1737751673941664500,7.85366455078125,0.21478180587291718,-0.13207069039344788,-0.45885226130485535
1737751673951732500,7.863732421875,0.11596255749464035,-0.22064688801765442,-0.5631523132324219
1737751673961800400,7.873800537109375,-0.001264202524907887,-0.27726462483406067,-0.6388183236122131
1737751673971869400,7.883869384765625,-0.10095617175102234,-0.2706027328968048,-0.6994174718856812
1737751673981937400,7.8939375,-0.17019037902355194,-0.18191175162792206,-0.7582099437713623
1737751673992005400,7.90400537109375,-0.24272289872169495,-0.04995637387037277,-0.828023374080658
1737751674002073600,7.914073486328125,-0.3335803747177124,0.06569645553827286,-0.9028558135032654
1737751674012141600,7.9241416015625,-0.45534273982048035,0.13588166236877441,-0.9719771146774292
1737751674022209300,7.934209228515625,-0.6191601753234863,0.175846666097641,-1.0207467079162598
1737751674032278500,7.944278564453125,-0.8034464120864868,0.2372186779975891,-1.0451980829238892
1737751674042346500,7.954346435546875,-0.9986822009086609,0.2779597043991089,-1.002995491027832
1737751674052414500,7.96441455078125,-1.20616614818573,0.22094222903251648,-0.899527907371521
1737751674062482400,7.974482421875,-1.3908089399337769,0.022712768986821175,-0.7948803305625916
1737751674072550700,7.984550537109375,-1.4912785291671753,-0.27113455533981323,-0.683521568775177
1737751674082618400,7.994618408203125,-1.476048469543457,-0.5538522601127625,-0.5981153249740601
1737751674092686300,8.004686279296875,-1.3702781200408936,-0.7912869453430176,-0.5422369241714478
1737751674102755600,8.014755615234375,-1.2444407939910889,-0.8944801688194275,-0.5395638942718506
1737751674112823600,8.024823486328126,-1.1388976573944092,-1.0089409351348877,-0.5653941631317139
1737751674122891500,8.0348916015625,-1.082586407661438,-1.1542805433273315,-0.585273027420044
1737751674132959500,8.04495947265625,-1.0708054304122925,-1.3162667751312256,-0.5701095461845398
1737751674143027500,8.05502734375,-1.0860618352890015,-1.481864094734192,-0.5046330690383911
1737751674153095400,8.065095458984375,-1.097679615020752,-1.5772323608398438,-0.40086832642555237
1737751674163163400,8.075163330078125,-1.0630508661270142,-1.5270414352416992,-0.28027108311653137
1737751674173232600,8.085232666015624,-0.9666385054588318,-1.289859414100647,-0.1326128989458084
1737751674183300600,8.095300537109376,-0.8432350754737854,-0.9252687096595764,0.009895507246255875
1737751674193368300,8.105368408203125,-0.7407335042953491,-0.5648460984230042,0.12853054702281952
1737751674203436300,8.115436279296874,-0.7073062658309937,-0.2696434557437897,0.22656629979610443
1737751674213504500,8.12550439453125,-0.7224932312965393,-0.10614241659641266,0.3313235938549042
1737751674223572500,8.135572509765625,-0.7845811247825623,-0.07660689204931259,0.3895493447780609
1737751674233641500,8.145641357421875,-0.8633848428726196,-0.13047465682029724,0.40931373834609985
1737751674243709400,8.15570947265625,-0.90826815366745,-0.2064964473247528,0.3877312242984772
1737751674253777400,8.16577734375,-0.8746015429496765,-0.22872158885002136,0.3510781228542328
1737751674263845400,8.175845458984375,-0.7707307934761047,-0.217204749584198,0.31668180227279663
1737751674273913300,8.185913330078124,-0.6320434808731079,-0.19527815282344818,0.28862541913986206
1737751674283981600,8.195981689453125,-0.503604531288147,-0.1629929095506668,0.2842109501361847
1737751674294049500,8.206049560546875,-0.40712836384773254,-0.10144805908203125,0.28124284744262695
1737751674304118300,8.2161181640625,-0.34808579087257385,-0.04420900717377663,0.26701784133911133
1737751674314186200,8.226186279296876,-0.30124107003211975,-0.03250361606478691,0.25806963443756104
1737751674324254500,8.23625439453125,-0.26274535059928894,-0.0356924831867218,0.2367323786020279
1737751674334322400,8.246322509765625,-0.21639221906661987,-0.08320727199316025,0.18541380763053894
1737751674344390400,8.256390380859376,-0.18693126738071442,-0.15391738712787628,0.12076343595981598
1737751674354458400,8.266458251953125,-0.17939744889736176,-0.20488683879375458,0.045994922518730164
1737751674364526600,8.276526611328125,-0.2019943743944168,-0.17352411150932312,-0.011634285561740398
1737751674374595300,8.28659521484375,-0.2200961410999298,-0.023133547976613045,-0.034392859786748886
1737751674384663300,8.296663330078125,-0.2025192826986313,0.21565425395965576,-0.027100859209895134
1737751674394731500,8.3067314453125,-0.135312020778656,0.5296105742454529,0.013798636384308338
1737751674404799500,8.316799560546874,-0.019632557407021523,0.9616515040397644,0.07031916826963425
1737751674414867500,8.326867431640625,0.1139281690120697,1.4991213083267212,0.10552269965410233
1737751674424935400,8.336935302734375,0.17835083603858948,1.9436266422271729,0.15655632317066193
1737751674435004400,8.34700439453125,0.15383590757846832,2.1168651580810547,0.21521857380867004
1737751674445072400,8.357072265625,0.11829974502325058,2.0471484661102295,0.298310786485672
1737751674455140400,8.367140380859375,0.11718521267175674,1.8900361061096191,0.36933544278144836
1737751674465208600,8.37720849609375,0.13211196660995483,1.6797726154327393,0.4012446403503418
1737751674475276500,8.387276611328126,0.15890389680862427,1.41379976272583,0.39543095231056213
1737751674485344500,8.397344482421875,0.18775871396064758,1.0949794054031372,0.36067697405815125
1737751674495412200,8.407412109375,0.1875525861978531,0.7375510334968567,0.3094848692417145
1737751674505481500,8.4174814453125,0.13135004043579102,0.36911118030548096,0.23715369403362274
1737751674515549400,8.427549560546876,0.020656276494264603,0.038968171924352646,0.16594316065311432
1737751674525617400,8.437617431640625,-0.11044049263000488,-0.247407928109169,0.1015375405550003
1737751674535685600,8.447685546875,-0.23337812721729279,-0.484247624874115,0.03483041748404503
1737751674545753600,8.457753662109376,-0.32228296995162964,-0.6595401167869568,-0.03520619124174118
1737751674555821300,8.4678212890625,-0.36898550391197205,-0.7558543682098389,-0.10449232161045074
1737751674565889300,8.47788916015625,-0.349682092666626,-0.761964738368988,-0.1566881537437439
1737751674575958500,8.48795849609375,-0.2901519238948822,-0.6998931169509888,-0.18135514855384827
1737751674586026500,8.498026611328125,-0.21064326167106628,-0.6061250567436218,-0.17811593413352966
1737751674596094500,8.508094482421875,-0.14057974517345428,-0.5052583813667297,-0.15446680784225464
1737751674606162400,8.518162353515624,-0.09888184070587158,-0.41292259097099304,-0.1252170354127884
1737751674616230000,8.52822998046875,-0.06981024146080017,-0.33974212408065796,-0.08261018991470337
1737751674626297600,8.538297607421875,-0.06065136194229126,-0.2708040773868561,-0.03354118391871452
1737751674636365600,8.548365478515626,-0.05440731719136238,-0.23197518289089203,0.004607534967362881
1737751674646434800,8.558434814453125,-0.0527750626206398,-0.21624282002449036,0.05107463523745537
1737751674656502800,8.568502685546875,-0.042097385972738266,-0.19466376304626465,0.10354796051979065
1737751674666570800,8.57857080078125,-0.015571502968668938,-0.17295899987220764,0.14388367533683777
1737751674676638700,8.588638671875,0.021496236324310303,-0.1412024050951004,0.17239254713058472
1737751674686706700,8.598706787109375,0.074586883187294,-0.10922981798648834,0.19376680254936218
1737751674696774700,8.608774658203124,0.15043823421001434,-0.08092521131038666,0.20161408185958862
1737751674706843600,8.61884375,0.23930951952934265,-0.06909997761249542,0.17705920338630676
1737751674716911900,8.628911865234375,0.3367375433444977,-0.08339156210422516,0.11563445627689362
1737751674726979800,8.638979736328125,0.4356294870376587,-0.11952346563339233,0.005139634478837252
1737751674737047600,8.649047607421876,0.5377393364906311,-0.1750650256872177,-0.13851580023765564
1737751674747115500,8.659115478515625,0.6497535109519958,-0.2430288940668106,-0.3001886010169983
1737751674757183700,8.669183837890625,0.7675360441207886,-0.3185598850250244,-0.46126535534858704
1737751674767251700,8.679251708984374,0.8471318483352661,-0.40065768361091614,-0.6063730120658875
1737751674777320700,8.68932080078125,0.8744435906410217,-0.45941632986068726,-0.7260434627532959
1737751674787389000,8.699388916015625,0.8430763483047485,-0.4605279266834259,-0.8137072920799255
1737751674797456600,8.70945654296875,0.783565878868103,-0.3752146363258362,-0.8763093948364258
1737751674807524600,8.719524658203126,0.7340776920318604,-0.2263668328523636,-0.9142288565635681
1737751674817592600,8.729592529296875,0.70854651927948,-0.05351222679018974,-0.929701030254364
1737751674827660800,8.739660888671875,0.6733579039573669,0.10548141598701477,-0.927909791469574
1737751674837728800,8.749728759765626,0.6093970537185669,0.21360841393470764,-0.9133278727531433
1737751674847797800,8.7597978515625,0.5281913876533508,0.20399335026741028,-0.8972458839416504
1737751674857865700,8.76986572265625,0.40778589248657227,0.1044827327132225,-0.8764836192131042
1737751674867933700,8.77993359375,0.26161348819732666,-0.06251451373100281,-0.8674277663230896
1737751674878001700,8.790001708984375,0.11502725630998611,-0.3074811100959778,-0.8968533277511597
1737751674888069600,8.800069580078125,0.0076094502583146095,-0.624487042427063,-0.9610711932182312
1737751674898137900,8.810137939453124,-0.03363306075334549,-0.9342869520187378,-1.0259268283843994
1737751674908205800,8.820205810546875,0.010822287760674953,-1.2180925607681274,-1.0754917860031128
1737751674918274600,8.830274658203125,0.08964253216981888,-1.4560608863830566,-1.1200834512710571
1737751674928342500,8.840342529296874,0.15794995427131653,-1.6706949472427368,-1.164610505104065
1737751674938410800,8.85041064453125,0.2019248604774475,-1.8110473155975342,-1.2044239044189453
1737751674948478700,8.860478759765625,0.24296550452709198,-1.8533680438995361,-1.2246754169464111
1737751674958546700,8.870546630859375,0.2934265434741974,-1.841269612312317,-1.2067893743515015
1737751674968615000,8.880614990234376,0.3463110625743866,-1.7769662141799927,-1.1400002241134644
1737751674978683000,8.890682861328125,0.38945135474205017,-1.6807202100753784,-1.0401108264923096
1737751674988751600,8.900751708984375,0.4135548174381256,-1.5471322536468506,-0.9196448922157288
1737751674998819600,8.910819580078124,0.4206167161464691,-1.3777722120285034,-0.7958934307098389
1737751675008887800,8.9208876953125,0.4215158224105835,-1.1613060235977173,-0.6733831763267517
1737751675018955800,8.930955810546875,0.43443721532821655,-0.8978400230407715,-0.5354258418083191
1737751675029023700,8.941023681640624,0.49190983176231384,-0.6133561134338379,-0.38650670647621155
1737751675039091700,8.951091796875,0.5730579495429993,-0.353269100189209,-0.2392330914735794
1737751675049160700,8.96116064453125,0.636217474937439,-0.17792153358459473,-0.12423353642225266
1737751675059228700,8.971228759765625,0.6528435945510864,-0.10450776666402817,-0.030966971069574356
1737751675069296600,8.981296630859376,0.6251397728919983,-0.12375523149967194,0.028070250526070595
1737751675079364900,8.99136474609375,0.58608478307724,-0.2061385214328766,0.05133748799562454
1737751675089432800,9.001432861328125,0.5691097974777222,-0.3264031410217285,0.05386003479361534
1737751675099500500,9.01150048828125,0.5881316661834717,-0.48712676763534546,0.03449485823512077
1737751675109568500,9.021568603515625,0.6239852905273438,-0.646074116230011,0.00797430332750082
1737751675119637800,9.0316376953125,0.6464040279388428,-0.8334668874740601,-0.02051805891096592
1737751675129705700,9.041705810546874,0.6292011141777039,-1.0814425945281982,-0.053950048983097076
1737751675139773700,9.051773681640626,0.5578936338424683,-1.3808032274246216,-0.07730144262313843
1737751675149841700,9.061841552734375,0.45167291164398193,-1.7068697214126587,-0.1024845615029335
1737751675159909600,9.07190966796875,0.323109894990921,-2.0054497718811035,-0.1401243507862091
1737751675169977600,9.0819775390625,0.1914498507976532,-2.188913106918335,-0.20423009991645813
1737751675180045600,9.092045654296875,0.06362451612949371,-2.2180662155151367,-0.284895122051239
1737751675190114800,9.10211474609375,-0.04037458822131157,-2.099292755126953,-0.351652055978775
1737751675200182800,9.112182861328124,-0.10131809860467911,-1.9218600988388062,-0.2945863604545593
1737751675210250500,9.12225048828125,-0.13573013246059418,-1.7139077186584473,-0.03870691731572151
1737751675220318700,9.132318603515625,-0.10992623120546341,-1.488598346710205,0.28360483050346375
1737751675230386700,9.14238671875,0.01056342851370573,-1.3181142807006836,0.5627291202545166
1737751675240454700,9.15245458984375,0.10060330480337143,-1.2495226860046387,0.7023389339447021
1737751675250522600,9.162522705078125,-0.06359601765871048,-1.2304136753082275,0.6419664025306702
1737751675260591900,9.172591796875,-0.5352282524108887,-1.1648736000061035,0.4680401682853699
1737751675270659600,9.18265966796875,-1.1063923835754395,-0.8085106611251831,0.35991716384887695
1737751675280727600,9.1927275390625,-1.5337655544281006,-0.03581099584698677,0.3945843279361725
1737751675290795800,9.202795654296875,-1.6257189512252808,0.8478607535362244,0.4686740040779114
1737751675300863700,9.21286376953125,-1.3529611825942993,1.5137804746627808,0.4364076852798462
1737751675310931700,9.222931640625,-0.9092833399772644,1.981262445449829,0.30519986152648926
1737751675320999700,9.232999755859375,-0.5155776143074036,2.2432591915130615,0.09296616166830063
1737751675331068700,9.243068603515624,-0.262590616941452,2.211300849914551,-0.15790468454360962
1737751675341136600,9.25313671875,-0.12650148570537567,1.9163198471069336,-0.3991556465625763
1737751675351204600,9.26320458984375,-0.026090722531080246,1.4998267889022827,-0.589817464351654
1737751675361272800,9.27327294921875,0.09688819944858551,1.1175428628921509,-0.7098341584205627
1737751675371340800,9.2833408203125,0.2451450377702713,0.8558019995689392,-0.7930350303649902
1737751675381408800,9.29340869140625,0.38374394178390503,0.7349269986152649,-0.8563631176948547
1737751675391477500,9.3034775390625,0.46345099806785583,0.7650574445724487,-0.8996994495391846
1737751675401545700,9.313545654296876,0.46651363372802734,0.9267054796218872,-0.8873453140258789
1737751675411613700,9.32361376953125,0.4203552007675171,1.1807385683059692,-0.8085247874259949
1737751675421681700,9.333681640625,0.3349068760871887,1.454576015472412,-0.6731570959091187
1737751675431749600,9.34374951171875,0.2256467044353485,1.6232211589813232,-0.48864585161209106
1737751675441817900,9.35381787109375,0.0960538312792778,1.5935641527175903,-0.2848341166973114
1737751675451885800,9.3638857421875,-0.05944974347949028,1.3779810667037964,-0.10574214160442352
1737751675461954600,9.37395458984375,-0.23570919036865234,1.0785216093063354,0.010630539618432522
1737751675472022800,9.384022705078126,-0.38624197244644165,0.7877593040466309,0.055684566497802734
1737751675482090800,9.3940908203125,-0.4688479006290436,0.5732640624046326,0.03214701637625694
1737751675492158700,9.40415869140625,-0.4952608644962311,0.4038156569004059,-0.023966852575540543
1737751675502226700,9.414226806640626,-0.49728646874427795,0.2476036697626114,-0.07319511473178864
1737751675512294700,9.424294677734375,-0.4970225691795349,0.13651390373706818,-0.09893084317445755
1737751675522362600,9.434362548828124,-0.5057095289230347,0.11322642117738724,-0.0975787565112114
1737751675532431600,9.444431640625,-0.5181757807731628,0.15180231630802155,-0.11822997033596039
1737751675542499800,9.454499755859375,-0.5329056978225708,0.23439039289951324,-0.16166585683822632
1737751675552567800,9.46456787109375,-0.5403586030006409,0.3506144881248474,-0.2109021097421646
1737751675562635800,9.4746357421875,-0.5294761061668396,0.4700641632080078,-0.25160932540893555
1737751675572703500,9.484703369140625,-0.5053555965423584,0.563212513923645,-0.28155046701431274
1737751675582771700,9.494771728515625,-0.4859464764595032,0.617907702922821,-0.3065285086631775
1737751675592840700,9.5048408203125,-0.47310975193977356,0.6288610100746155,-0.32758665084838867
1737751675602908700,9.51490869140625,-0.48476696014404297,0.6322861313819885,-0.32842394709587097
1737751675612980200,9.524980224609376,-0.5181478261947632,0.659080982208252,-0.29831504821777344
1737751675623048200,9.535048095703125,-0.5689563751220703,0.7213291525840759,-0.24449948966503143
1737751675633116000,9.545115966796875,-0.620822012424469,0.8185246586799622,-0.18602445721626282
1737751675643183900,9.555183837890626,-0.6582764387130737,0.9463961124420166,-0.12750816345214844
1737751675653252000,9.565252197265625,-0.6761390566825867,1.095815658569336,-0.08742784708738327
1737751675663321000,9.575321044921875,-0.6612200140953064,1.2205379009246826,-0.056716542690992355
1737751675673389000,9.58538916015625,-0.6082990169525146,1.3097658157348633,-0.038239795714616776
1737751675683457000,9.59545703125,-0.5175744295120239,1.3537158966064453,-0.007773234508931637
1737751675693525000,9.60552490234375,-0.4019913673400879,1.3323038816452026,0.03218536823987961
1737751675703593000,9.615593017578124,-0.27418893575668335,1.2604461908340454,0.09053868800401688
1737751675713661000,9.625660888671876,-0.15111654996871948,1.1419386863708496,0.15425507724285126
1737751675723730200,9.635730224609375,-0.047514788806438446,0.959435224533081,0.20738168060779572
1737751675733798100,9.645798095703125,0.02039635181427002,0.7583284378051758,0.2456134855747223
1737751675743865900,9.655865966796876,0.049854107201099396,0.585785984992981,0.30164825916290283
1737751675753934000,9.66593408203125,0.05523502454161644,0.4627237021923065,0.37611958384513855
1737751675764002000,9.676001953125,0.04367450997233391,0.3896383047103882,0.4898213744163513
1737751675774070000,9.686070068359374,0.030661240220069885,0.35821834206581116,0.6158642768859863
1737751675784138000,9.696137939453125,0.020899955183267593,0.37232136726379395,0.7209960222244263
1737751675794207000,9.70620703125,0.013697169721126556,0.4081166386604309,0.8018050789833069
1737751675804275000,9.71627490234375,0.016441291198134422,0.44833889603614807,0.8531076908111572
1737751675814343000,9.726343017578126,0.03025670535862446,0.4720572829246521,0.8929224610328674
1737751675824411000,9.736410888671875,0.045283325016498566,0.476283997297287,0.9178590178489685
1737751675834479000,9.74647900390625,0.050984352827072144,0.44217661023139954,0.9384955763816833
1737751675844547000,9.756547119140626,0.04826446622610092,0.38389334082603455,0.9558106660842896
1737751675854615800,9.76661572265625,0.04725193604826927,0.32968682050704956,0.9568402171134949
1737751675864684000,9.77668408203125,0.06197601929306984,0.2801078259944916,0.9446059465408325
1737751675874752000,9.786751953125,0.08580225706100464,0.24939757585525513,0.9118993878364563
1737751675884820000,9.796820068359375,0.10172822326421738,0.21835178136825562,0.8467406034469604
1737751675894888000,9.806887939453125,0.1101190447807312,0.1609707772731781,0.7695550322532654
1737751675904956200,9.8169560546875,0.12173708528280258,0.08105996251106262,0.6929132342338562
1737751675915024100,9.827024169921875,0.15643247961997986,0.017906296998262405,0.621429443359375
1737751675925092900,9.8370927734375,0.20085987448692322,-0.01094798929989338,0.5650665760040283
1737751675935161000,9.8471611328125,0.22988273203372955,-0.017966482788324356,0.5168836116790771
1737751675945229000,9.85722900390625,0.23709696531295776,-0.06556462496519089,0.46973100304603577
1737751675955297000,9.867297119140625,0.22616443037986755,-0.1421576738357544,0.42340052127838135
1737751675965365000,9.877364990234375,0.20789967477321625,-0.21867188811302185,0.38477379083633423
1737751675975433200,9.88743310546875,0.19980178773403168,-0.2996327877044678,0.3359614908695221
1737751675985501000,9.8975009765625,0.18987512588500977,-0.36645016074180603,0.2837560772895813
1737751675995570000,9.90756982421875,0.17253635823726654,-0.3970184624195099,0.24762870371341705
1737751676005638100,9.91763818359375,0.147790789604187,-0.3805460035800934,0.22936688363552094
1737751676015706000,9.9277060546875,0.12225134670734406,-0.294645756483078,0.23373818397521973
1737751676025774000,9.937774169921875,0.07662047445774078,-0.15670226514339447,0.2413495033979416
1737751676035842000,9.947842041015624,0.004927380476146936,-0.008777512237429619,0.24854056537151337
1737751676045910000,9.957909912109375,-0.06403277814388275,0.14202505350112915,0.2618776857852936
1737751676055979000,9.96797900390625,-0.09272541105747223,0.26365774869918823,0.272790789604187
1737751676066047000,9.978046875,-0.07693073153495789,0.34623971581459045,0.2752337157726288
1737751676076115200,9.988115234375,-0.03887762501835823,0.3659481704235077,0.2648753225803375
1737751676086183200,9.99818310546875,0.0038485340774059296,0.31541600823402405,0.2299724817276001
1737751676096251100,10.008251220703125,0.026924291625618935,0.20053017139434814,0.17944778501987457
1737751676106318800,10.01831884765625,0.03961558640003204,0.04771612212061882,0.12181085348129272
1737751676116387000,10.028386962890625,0.04731291905045509,-0.10872967541217804,0.060387175530195236
1737751676126456000,10.0384560546875,0.04904370754957199,-0.267079621553421,-0.005416869651526213
1737751676136524000,10.04852392578125,0.029918484389781952,-0.4149620532989502,-0.07466837763786316
1737751676146592300,10.05859228515625,0.0012146678054705262,-0.5277045965194702,-0.13238440454006195
1737751676156660000,10.068659912109375,-0.029693979769945145,-0.5976029634475708,-0.17353476583957672
1737751676166728000,10.07872802734375,-0.05692986026406288,-0.6370646357536316,-0.1961045265197754
1737751676176796000,10.0887958984375,-0.06705013662576675,-0.6458394527435303,-0.20055946707725525
1737751676186864000,10.098864013671875,-0.06390095502138138,-0.6302255988121033,-0.17226071655750275
1737751676196933000,10.10893310546875,-0.051057856529951096,-0.6147036552429199,-0.1287260204553604
1737751676207001000,10.1190009765625,-0.042031340301036835,-0.6149992346763611,-0.07681088894605637
1737751676217069000,10.129069091796875,-0.025651300325989723,-0.6175300478935242,-0.03386475518345833
1737751676227137000,10.139136962890625,0.0020149475894868374,-0.6214161515235901,0.0027449200861155987
1737751676237205000,10.149205078125,0.040943440049886703,-0.6087083220481873,0.04613234102725983
1737751676247273000,10.15927294921875,0.09221114963293076,-0.5674312114715576,0.09737102687358856
1737751676257342200,10.16934228515625,0.14678971469402313,-0.5162913203239441,0.15532754361629486
1737751676267410000,10.179409912109374,0.1850779801607132,-0.4651258885860443,0.2258930504322052
1737751676277478000,10.189477783203126,0.220286563038826,-0.40117111802101135,0.29903650283813477
1737751676287545900,10.1995458984375,0.24252289533615112,-0.32207632064819336,0.3654157817363739
1737751676297614000,10.209614013671874,0.2642068862915039,-0.2242615967988968,0.4230908155441284
1737751676307682000,10.21968212890625,0.2773037850856781,-0.11866859346628189,0.46546781063079834
1737751676317750000,10.22975,0.2741521894931793,-0.02088371105492115,0.4900205731391907
1737751676327819000,10.239819091796875,0.25661501288414,0.059303801506757736,0.5046170949935913
1737751676337887000,10.249886962890624,0.23433899879455566,0.12162896245718002,0.5070149898529053
1737751676347955000,10.259954833984375,0.2278134524822235,0.16378307342529297,0.5068656206130981
1737751676358023000,10.27002294921875,0.247911274433136,0.17430523037910461,0.5063343048095703
1737751676368091100,10.280091064453124,0.28251877427101135,0.1434415876865387,0.5060855746269226
1737751676378159000,10.2901591796875,0.3164024353027344,0.06271451711654663,0.4922107458114624
1737751676388227000,10.30022705078125,0.3335851728916168,-0.06065455824136734,0.4546157121658325
1737751676398296000,10.310296142578125,0.34449639916419983,-0.1981988400220871,0.395221084356308
1737751676408364000,10.320364013671876,0.33870935440063477,-0.3176248371601105,0.30799537897109985
1737751676418432000,10.330431884765625,0.32437434792518616,-0.42379334568977356,0.2043270319700241
1737751676428500000,10.3405,0.3206595182418823,-0.5110536813735962,0.11291269958019257
1737751676438568200,10.350568115234376,0.3208286166191101,-0.5896826982498169,0.041661426424980164
1737751676448636200,10.36063623046875,0.3196525573730469,-0.640032172203064,-0.004421113524585962
1737751676458704000,10.370703857421875,0.3175550699234009,-0.6614639759063721,-0.021412082016468048
1737751676468773000,10.380773193359374,0.30732613801956177,-0.6296700835227966,-0.013174391351640224
1737751676478841000,10.390841064453125,0.30092814564704895,-0.5677042007446289,0.0031366711482405663
1737751676488909000,10.400908935546875,0.2854684889316559,-0.47551247477531433,0.0158346239477396
1737751676498977000,10.41097705078125,0.27766862511634827,-0.3853681981563568,0.029825806617736816
1737751676509045200,10.421045166015626,0.27573463320732117,-0.30291512608528137,0.04988659918308258
1737751676519113000,10.431113037109375,0.28118425607681274,-0.24940210580825806,0.07283159345388412
1737751676529182000,10.441181884765625,0.2932257652282715,-0.22587254643440247,0.09032563865184784
1737751676539250200,10.451250244140626,0.30584514141082764,-0.22450368106365204,0.09144362807273865
1737751676549318100,10.461318115234375,0.3123464584350586,-0.2431439459323883,0.08794823288917542
1737751676559386000,10.47138623046875,0.31889650225639343,-0.25784832239151,0.07916459441184998
1737751676569454000,10.4814541015625,0.32922130823135376,-0.2585018575191498,0.06307430565357208
1737751676579522000,10.49152197265625,0.350309818983078,-0.252512663602829,0.0484309159219265
1737751676589590000,10.501590087890625,0.37059882283210754,-0.25162824988365173,0.04393550008535385
1737751676599659000,10.511658935546874,0.3917984068393707,-0.23969648778438568,0.041308559477329254
1737751676609727200,10.521727294921876,0.4094918966293335,-0.23758485913276672,0.031242873519659042
1737751676619796000,10.5317958984375,0.41996079683303833,-0.22397610545158386,0.01506869774311781
1737751676629864000,10.541864013671875,0.42891594767570496,-0.19719509780406952,-0.009861951693892479
1737751676639932000,10.551931884765626,0.425324946641922,-0.15311764180660248,-0.047154996544122696
1737751676650000000,10.561999755859375,0.4273279011249542,-0.09357442706823349,-0.080124132335186
1737751676660068000,10.572068115234375,0.4381469786167145,-0.046549391001462936,-0.10556690394878387
1737751676670136800,10.58213671875,0.45896199345588684,-0.011579157784581184,-0.10130398720502853
1737751676680204800,10.592204833984376,0.4993528127670288,0.018749985843896866,-0.08178380876779556
1737751676690273000,10.60227294921875,0.565153956413269,0.06609512865543365,-0.04116900637745857
1737751676700341000,10.612341064453124,0.6545714139938354,0.10192636400461197,0.010847854427993298
1737751676710409000,10.622408935546876,0.7512425780296326,0.11210310459136963,0.08539719134569168
1737751676720477000,10.632476806640625,0.8498085737228394,0.06491561979055405,0.2017267346382141
1737751676730545200,10.642545166015625,0.9246508479118347,-0.033600304275751114,0.33304667472839355
1737751676740614000,10.65261376953125,0.9727991819381714,-0.17066948115825653,0.47023728489875793
1737751676750681900,10.662681884765625,0.9746026992797852,-0.30365654826164246,0.5669334530830383
1737751676760750000,10.67275,0.9024621844291687,-0.3780879080295563,0.5880805850028992
1737751676770818000,10.682818115234374,0.7312403917312622,-0.3911760151386261,0.5393458008766174
1737751676780886000,10.692885986328125,0.5002433657646179,-0.31227266788482666,0.4613167643547058
1737751676790954000,10.7029541015625,0.2529800534248352,-0.12632279098033905,0.4015823304653168
1737751676801023000,10.71302294921875,0.03958522528409958,0.15143932402133942,0.3773491382598877
1737751676811091000,10.723091064453126,-0.09176401048898697,0.49261021614074707,0.38290104269981384
1737751676821159000,10.733158935546875,-0.12888607382774353,0.8139467239379883,0.3845127820968628
1737751676831227100,10.74322705078125,-0.10648436844348907,1.06358003616333,0.3523540496826172
1737751676841295000,10.753295166015626,-0.0549364872276783,1.2148385047912598,0.26791319251060486
1737751676851362800,10.76336279296875,0.005197159014642239,1.2615625858306885,0.16099821031093597
1737751676861430800,10.7734306640625,0.0814751535654068,1.198180079460144,0.04418876767158508
1737751676871500000,10.7835,0.15398317575454712,1.0266038179397583,-0.07272639870643616
1737751676881568000,10.793568115234375,0.21083340048789978,0.790589451789856,-0.1834625005722046
1737751676891636000,10.803635986328125,0.24866627156734467,0.5557261109352112,-0.2807523012161255
1737751676901704000,10.813703857421874,0.2785983383655548,0.3421506881713867,-0.34795957803726196
1737751676911772000,10.82377197265625,0.31080394983291626,0.20725411176681519,-0.4060753285884857
1737751676921839900,10.83383984375,0.3479315936565399,0.16515007615089417,-0.4408157467842102
1737751676931907800,10.843907958984374,0.38032016158103943,0.18363986909389496,-0.44906702637672424
1737751676941977000,10.85397705078125,0.3907267451286316,0.24656876921653748,-0.4194159209728241
1737751676952045000,10.864045166015625,0.37904104590415955,0.3286367356777191,-0.3581719994544983
1737751676962113000,10.874113037109375,0.33832797408103943,0.41689950227737427,-0.2745519280433655
1737751676972180700,10.8841806640625,0.2915596663951874,0.49971315264701843,-0.19072841107845306
1737751676982249000,10.8942490234375,0.25350016355514526,0.5712763071060181,-0.128346785902977
1737751676992317000,10.90431689453125,0.21956777572631836,0.6058542132377625,-0.08204453438520432
1737751677002386000,10.914385986328124,0.1831868588924408,0.604080855846405,-0.04869350418448448
1737751677012454100,10.9244541015625,0.15505856275558472,0.5708839893341064,-0.020070381462574005
1737751677022521900,10.93452197265625,0.1322334110736847,0.5375832915306091,0.012775982730090618
1737751677032589800,10.94458984375,0.12203509360551834,0.47961267828941345,0.04734141752123833
1737751677042657800,10.95465771484375,0.12695501744747162,0.40268298983573914,0.07289417833089828
1737751677052726000,10.96472607421875,0.14725948870182037,0.32062408328056335,0.0806967094540596
1737751677062794000,10.9747939453125,0.1751270741224289,0.22387517988681793,0.08092174679040909
1737751677072863000,10.984863037109376,0.20139595866203308,0.11569570749998093,0.08063998818397522
1737751677082931000,10.994930908203125,0.21818479895591736,0.008696286007761955,0.08637110888957977
1737751677092999000,11.0049990234375,0.23014451563358307,-0.08104691654443741,0.10897761583328247
1737751677103067000,11.01506689453125,0.23936864733695984,-0.1404082477092743,0.1407368779182434
1737751677113134800,11.025134765625,0.254751592874527,-0.13438576459884644,0.16184642910957336
1737751677123203000,11.035203125,0.2425527274608612,-0.07181639969348907,0.1401565670967102
1737751677133271800,11.045271728515624,0.18166913092136383,0.007906392216682434,0.1269664764404297
1737751677143339800,11.05533984375,0.1026158556342125,0.12222258001565933,0.1371847540140152
1737751677153408000,11.065407958984375,0.03693298250436783,0.24048291146755219,0.16459719836711884
1737751677163476000,11.07547607421875,-0.0007499461644329131,0.34577950835227966,0.19864624738693237
1737751677173544000,11.0855439453125,-0.003719104453921318,0.4262674152851105,0.24034389853477478
1737751677183612000,11.09561181640625,0.01884159818291664,0.490367591381073,0.2824530005455017
1737751677193680100,11.10568017578125,0.05384325608611107,0.5267905592918396,0.31508949398994446
1737751677203748900,11.115748779296876,0.09452011436223984,0.5158622860908508,0.33170124888420105
1737751677213816800,11.12581689453125,0.12142442911863327,0.4670143127441406,0.32710620760917664
1737751677223885000,11.135885009765625,0.12926451861858368,0.39110490679740906,0.31698140501976013
1737751677233953000,11.145953125,0.12028007209300995,0.28798598051071167,0.29657307267189026
1737751677244021000,11.15602099609375,0.10742712020874023,0.15989911556243896,0.2836058735847473
1737751677254089000,11.1660888671875,0.09087424725294113,0.032515332102775574,0.2844277322292328
1737751677264158000,11.176157958984374,0.07228564471006393,-0.06834044307470322,0.2961179316043854
1737751677274226000,11.186225830078126,0.05266907066106796,-0.14317446947097778,0.31418004631996155
1737751677284294000,11.1962939453125,0.03176112473011017,-0.1904495656490326,0.3270111382007599
1737751677294361900,11.20636181640625,0.008190818130970001,-0.21207870543003082,0.3383159935474396
1737751677304430000,11.21643017578125,-0.023390544578433037,-0.2070450633764267,0.34734758734703064
1737751677314498000,11.226498046875,-0.056412409991025925,-0.17375634610652924,0.36838042736053467
1737751677324565800,11.236565673828125,-0.08605339378118515,-0.12077382206916809,0.3914146423339844
1737751677334635000,11.246635009765624,-0.10834617912769318,-0.055873651057481766,0.41862067580223083
1737751677344703000,11.256702880859375,-0.11104875802993774,0.01528601162135601,0.45755529403686523
1737751677354771000,11.26677099609375,-0.10174660384654999,0.08525896817445755,0.4863664507865906
1737751677364839000,11.2768388671875,-0.08638229221105576,0.1350070834159851,0.4943085312843323
1737751677374907100,11.2869072265625,-0.07273811846971512,0.16463182866573334,0.47192147374153137
1737751677384974800,11.296974853515625,-0.07458875328302383,0.18881279230117798,0.4284999668598175
1737751677395043800,11.3070439453125,-0.10820769518613815,0.18695896863937378,0.38264352083206177
1737751677405112000,11.317112060546876,-0.16002163290977478,0.15713129937648773,0.34988662600517273
1737751677415180000,11.327179931640625,-0.2008627951145172,0.1065317690372467,0.32389816641807556
1737751677425248000,11.337248046875,-0.24430720508098602,0.03007987141609192,0.2865992784500122
1737751677435316000,11.34731591796875,-0.2965773344039917,-0.05181020125746727,0.23131577670574188
1737751677445384000,11.357384033203125,-0.35410216450691223,-0.12656593322753906,0.16025784611701965
1737751677455452000,11.367451904296875,-0.40136900544166565,-0.17711405456066132,0.0790463462471962
1737751677465521000,11.37752099609375,-0.41794663667678833,-0.18900933861732483,-0.0075753615237772465
1737751677475589000,11.387589111328126,-0.4078045189380646,-0.14332014322280884,-0.09329399466514587
1737751677485657000,11.397656982421875,-0.3878917992115021,-0.07938244193792343,-0.16704465448856354
1737751677495724800,11.407724853515624,-0.3497827649116516,-0.015182415023446083,-0.21369630098342896
1737751677505792800,11.417792724609376,-0.3037913143634796,0.048582982271909714,-0.22839002311229706
1737751677515861000,11.427861083984375,-0.2339126318693161,0.11781318485736847,-0.21486809849739075
1737751677525930000,11.437929931640625,-0.14882782101631165,0.18170428276062012,-0.16744811832904816
1737751677535998000,11.447998046875,-0.05669577047228813,0.23064306378364563,-0.10650540143251419
1737751677546066000,11.45806591796875,0.026193253695964813,0.25030678510665894,-0.046853791922330856
1737751677556134000,11.4681337890625,0.09601787477731705,0.2219233363866806,0.003133208956569433
1737751677566201900,11.478201904296874,0.14414039254188538,0.17485836148262024,0.04387158527970314
1737751677576269800,11.488269775390625,0.1682973951101303,0.10654827952384949,0.06733829528093338
1737751677586338000,11.498338134765625,0.16642439365386963,0.03485012426972389,0.07447023689746857
1737751677596407000,11.508406982421874,0.13729846477508545,-0.04212614893913269,0.0556454174220562
1737751677606474800,11.518474853515626,0.10304835438728333,-0.13459908962249756,0.03666160628199577
1737751677616538600,11.52853857421875,0.07173676788806915,-0.2559364438056946,0.02695119008421898
1737751677626606600,11.538606689453125,0.06305140256881714,-0.3585248589515686,0.02672668546438217
1737751677636674300,11.54867431640625,0.0857178345322609,-0.4458978474140167,0.032635439187288284
1737751677646742300,11.5587421875,0.10565878450870514,-0.5091772079467773,0.028388498350977898
1737751677656810500,11.568810546875,0.10638369619846344,-0.5728304982185364,0.025416675955057144
1737751677666879500,11.57887939453125,0.0769863948225975,-0.628589928150177,0.018929217010736465
1737751677676947500,11.588947509765624,0.028436968103051186,-0.6862473487854004,0.0016943031223490834
1737751677687015200,11.59901513671875,-0.02683188021183014,-0.7411417365074158,-0.022591860964894295
1737751677697083400,11.60908349609375,-0.06937508285045624,-0.7806364297866821,-0.037578266113996506
1737751677707151400,11.6191513671875,-0.07868735492229462,-0.7954864501953125,-0.05270182713866234
1737751677717219300,11.62921923828125,-0.07195275276899338,-0.7919391393661499,-0.07323746383190155
1737751677727288600,11.63928857421875,-0.04183639585971832,-0.7811722755432129,-0.09444288164377213
1737751677737356500,11.6493564453125,0.00890880636870861,-0.7432661652565002,-0.10194473713636398
1737751677747424300,11.65942431640625,0.06487540155649185,-0.6565887928009033,-0.10303397476673126
1737751677757492200,11.6694921875,0.1121867224574089,-0.5459930300712585,-0.10129120200872421
1737751677767560400,11.679560546875,0.14666400849819183,-0.4575001895427704,-0.1031855046749115
1737751677777628400,11.68962841796875,0.15927967429161072,-0.42246150970458984,-0.1080540344119072
1737751677787696400,11.6996962890625,0.1685360223054886,-0.41736075282096863,-0.12416642159223557
1737751677797765400,11.709765380859375,0.18750278651714325,-0.4543163776397705,-0.15370061993598938
1737751677807833300,11.719833251953125,0.2210168093442917,-0.5338894724845886,-0.20285004377365112
1737751677817901300,11.7299013671875,0.254711389541626,-0.6149489283561707,-0.2503179609775543
1737751677827969300,11.73996923828125,0.2864304184913635,-0.6328850388526917,-0.27367788553237915
1737751677838037500,11.75003759765625,0.32117775082588196,-0.5881665945053101,-0.27534687519073486
1737751677848105500,11.76010546875,0.36822009086608887,-0.48538079857826233,-0.2599242627620697
1737751677858174200,11.77017431640625,0.4217722713947296,-0.3783353269100189,-0.24438577890396118
1737751677868242400,11.780242431640625,0.45252540707588196,-0.27832937240600586,-0.23446176946163177
1737751677878310400,11.790310302734374,0.45382821559906006,-0.2117580622434616,-0.2187323421239853
1737751677888378400,11.80037841796875,0.4361879527568817,-0.18580368161201477,-0.20146414637565613
1737751677898446300,11.8104462890625,0.4060678780078888,-0.17516835033893585,-0.18092530965805054
1737751677908514600,11.8205146484375,0.37347984313964844,-0.16799059510231018,-0.15708309412002563
1737751677918582500,11.83058251953125,0.3407690227031708,-0.16701295971870422,-0.13563692569732666
1737751677928651300,11.8406513671875,0.3150218725204468,-0.16905346512794495,-0.10718744248151779
1737751677938719500,11.850719482421875,0.2903575301170349,-0.17128252983093262,-0.0663856789469719
1737751677948787500,11.860787353515626,0.29896992444992065,-0.17018158733844757,-0.016467124223709106
1737751677958855400,11.87085546875,0.30592262744903564,-0.15763835608959198,0.036309804767370224
1737751677968923400,11.88092333984375,0.3053889274597168,-0.12810391187667847,0.08551383763551712
1737751677978991600,11.89099169921875,0.2906544804573059,-0.11271589249372482,0.12771642208099365
1737751677989060400,11.901060302734376,0.2668948173522949,-0.12165213376283646,0.15275359153747559
1737751677999128300,11.91112841796875,0.23947358131408691,-0.1346435695886612,0.16369518637657166
1737751678009196500,11.921196533203124,0.21325182914733887,-0.15659786760807037,0.16237160563468933
1737751678019264500,11.931264404296876,0.1774216592311859,-0.18017269670963287,0.1539893001317978
1737751678029332500,11.94133251953125,0.1340866982936859,-0.21900984644889832,0.1322387307882309
1737751678039400400,11.951400390625,0.08938633650541306,-0.27175402641296387,0.09642667323350906
1737751678049469400,11.961469482421874,0.024050207808613777,-0.32358500361442566,0.04975717142224312
1737751678059537400,11.971537353515625,-0.05221846327185631,-0.3926372826099396,-0.0052107409574091434
1737751678069605400,11.98160546875,-0.12488947063684464,-0.4777332842350006,-0.06378830224275589
1737751678079673300,11.99167333984375,-0.18177007138729095,-0.5593162775039673,-0.11865421384572983
1737751678089741600,12.001741455078125,-0.22369781136512756,-0.6440836191177368,-0.15782985091209412
1737751678099809500,12.0118095703125,-0.2426302134990692,-0.7229896187782288,-0.17753882706165314
1737751678109877200,12.021877197265624,-0.2456664890050888,-0.7819626927375793,-0.18281961977481842
1737751678119946500,12.031946533203126,-0.268463134765625,-0.8186959028244019,-0.17986883223056793
1737751678130014500,12.042014404296875,-0.29919230937957764,-0.8391668200492859,-0.18574190139770508
1737751678140082400,12.05208251953125,-0.3234526216983795,-0.8422784805297852,-0.20433449745178223
1737751678150150400,12.062150390625,-0.3338962197303772,-0.8167893886566162,-0.22250710427761078
1737751678160218400,12.07221826171875,-0.32396742701530457,-0.7554227113723755,-0.22719639539718628
1737751678170286300,12.082286376953125,-0.28896069526672363,-0.6725286245346069,-0.21698477864265442
1737751678180355300,12.092355224609374,-0.23135998845100403,-0.5806479454040527,-0.19065064191818237
1737751678190423600,12.102423583984375,-0.1658283770084381,-0.4708825647830963,-0.160098597407341
1737751678200491500,12.112491455078125,-0.11699692904949188,-0.3592303395271301,-0.13973553478717804
1737751678210559500,12.1225595703125,-0.08840309828519821,-0.26776647567749023,-0.1350177377462387
1737751678220627200,12.132627197265625,-0.047204531729221344,-0.19547948241233826,-0.12707193195819855
1737751678230695400,12.1426953125,-0.003605920122936368,-0.12020523846149445,-0.11578571796417236
1737751678240764400,12.152764404296875,0.048173919320106506,-0.021826468408107758,-0.11079229414463043
1737751678250832400,12.162832275390626,0.11901240795850754,0.0741938054561615,-0.10740022361278534
1737751678260900600,12.172900634765625,0.20425832271575928,0.14417394995689392,-0.09315577894449234
1737751678270968300,12.18296826171875,0.29057085514068604,0.18226461112499237,-0.06149478629231453
1737751678281036300,12.193036376953126,0.36415398120880127,0.2184859961271286,-0.013450827449560165
1737751678291104300,12.203104248046875,0.4075999855995178,0.27407070994377136,0.03803153708577156
1737751678301172500,12.21317236328125,0.4480922818183899,0.3284151554107666,0.10575678944587708
1737751678311241500,12.223241455078124,0.48200204968452454,0.37519943714141846,0.18163317441940308
1737751678321309400,12.233309326171875,0.5118696689605713,0.39797505736351013,0.2561172544956207
1737751678331377400,12.24337744140625,0.5300340056419373,0.3906804025173187,0.3244641125202179
1737751678341445400,12.2534453125,0.5389004945755005,0.35242435336112976,0.38438868522644043
1737751678351513300,12.263513427734376,0.5405489802360535,0.29713767766952515,0.43597811460494995
1737751678361581300,12.273581298828125,0.5318460464477539,0.2192002534866333,0.46379321813583374
1737751678371650600,12.283650634765625,0.5313605666160583,0.12825091183185577,0.48627322912216187
1737751678381718300,12.29371826171875,0.5311983823776245,0.0557737834751606,0.4962009787559509
1737751678391786200,12.3037861328125,0.5241844058036804,-0.029513683170080185,0.4916573464870453
1737751678401854500,12.3138544921875,0.510694682598114,-0.12687192857265472,0.48187050223350525
1737751678411922400,12.32392236328125,0.4947125315666199,-0.23257172107696533,0.47050198912620544
1737751678421990400,12.333990478515625,0.47521740198135376,-0.3249341547489166,0.4523240625858307
1737751678432059400,12.344059326171875,0.4562607407569885,-0.3653835654258728,0.4325200021266937
1737751678442127400,12.35412744140625,0.4324318468570709,-0.37145212292671204,0.418636679649353
1737751678452195300,12.3641953125,0.3955678343772888,-0.33750826120376587,0.3960200548171997
1737751678462263300,12.37426318359375,0.3367713689804077,-0.27667421102523804,0.37490010261535645
1737751678472331500,12.38433154296875,0.26643913984298706,-0.2044583261013031,0.3621281087398529
1737751678482399500,12.3943994140625,0.1985304057598114,-0.11303414404392242,0.3498876988887787
1737751678492467500,12.404467529296875,0.150519460439682,-0.02118145115673542,0.3369218409061432
1737751678502536200,12.4145361328125,0.11220909655094147,0.06731752306222916,0.31965017318725586
1737751678512604400,12.4246044921875,0.08633009344339371,0.12356534600257874,0.3097195029258728
1737751678522672400,12.43467236328125,0.06967495381832123,0.13812671601772308,0.29990682005882263
1737751678532740400,12.444740234375,0.0653236135840416,0.12048753350973129,0.27784305810928345
1737751678542808300,12.454808349609374,0.05668431892991066,0.08603741228580475,0.2465147078037262
1737751678552876500,12.46487646484375,0.05681081861257553,0.04139910638332367,0.21445423364639282
1737751678562945300,12.4749453125,0.060447365045547485,-0.010537329129874706,0.1679336130619049
1737751678573013200,12.48501318359375,0.07410085946321487,-0.06894417852163315,0.10677145421504974
1737751678583081500,12.49508154296875,0.09240423142910004,-0.12304816395044327,0.041492849588394165
1737751678593149400,12.5051494140625,0.09802962839603424,-0.15381300449371338,-0.03296221047639847
1737751678603217400,12.515217529296875,0.08248528838157654,-0.18323932588100433,-0.09592200070619583
1737751678613285400,12.525285400390626,0.061521418392658234,-0.21082276105880737,-0.14734524488449097
1737751678623359000,12.53535888671875,0.028553614392876625,-0.24188746511936188,-0.1740351766347885
1737751678633427000,12.545427001953126,0.0007150587625801563,-0.2791461646556854,-0.1913404017686844
