time,seconds_elapsed,z,y,x
1737749423534612200,0.3096123046875,-0.134796142578125,-0.8820037841796875,-0.455413818359375
1737749423544679200,0.31967919921875,-0.1368255615234375,-0.8836212158203125,-0.454345703125
1737749423554746000,0.32974609375,-0.135772705078125,-0.87762451171875,-0.4517822265625
1737749423564813000,0.33981298828125,-0.13543701171875,-0.8746337890625,-0.450897216796875
1737749423574880300,0.34988037109375,-0.1342926025390625,-0.8778533935546875,-0.4499969482421875
1737749423584946200,0.3599462890625,-0.1351318359375,-0.8837738037109375,-0.447723388671875
1737749423595013000,0.37001318359375,-0.13580322265625,-0.8860321044921875,-0.449005126953125
1737749423605080000,0.380080078125,-0.132476806640625,-0.8798980712890625,-0.450347900390625
1737749423615147300,0.390147216796875,-0.12896728515625,-0.87603759765625,-0.4520721435546875
1737749423625214500,0.40021435546875,-0.124420166015625,-0.8736572265625,-0.449249267578125
1737749423635281400,0.410281494140625,-0.1234588623046875,-0.8795013427734375,-0.451751708984375
1737749423645347300,0.420347412109375,-0.1269378662109375,-0.88653564453125,-0.4532623291015625
1737749423655414300,0.430414306640625,-0.1302337646484375,-0.8870086669921875,-0.450714111328125
1737749423665481200,0.440481201171875,-0.1319122314453125,-0.892333984375,-0.4515533447265625
1737749423675548400,0.45054833984375,-0.1332855224609375,-0.895538330078125,-0.451507568359375
1737749423685615400,0.460615478515625,-0.132476806640625,-0.8868408203125,-0.4525299072265625
1737749423695681300,0.470681396484375,-0.1314697265625,-0.87640380859375,-0.45831298828125
1737749423705748200,0.480748291015625,-0.1275634765625,-0.8697052001953125,-0.46221923828125
1737749423715815400,0.4908154296875,-0.127227783203125,-0.8739013671875,-0.4663543701171875
1737749423725882400,0.50088232421875,-0.12664794921875,-0.8773651123046875,-0.4660797119140625
1737749423735949300,0.51094921875,-0.1297149658203125,-0.8792877197265625,-0.46392822265625
1737749423746016300,0.521016357421875,-0.1328582763671875,-0.87835693359375,-0.4541168212890625
1737749423756082200,0.531082275390625,-0.135284423828125,-0.8772430419921875,-0.443267822265625
1737749423766149400,0.5411494140625,-0.136749267578125,-0.877410888671875,-0.4391326904296875
1737749423776216300,0.55121630859375,-0.1367950439453125,-0.8801116943359375,-0.437744140625
1737749423786283300,0.561283203125,-0.1325531005859375,-0.89178466796875,-0.447052001953125
1737749423796350200,0.57135009765625,-0.1288299560546875,-0.8912200927734375,-0.448577880859375
1737749423806416400,0.58141650390625,-0.128448486328125,-0.8812408447265625,-0.4481964111328125
1737749423816483300,0.5914833984375,-0.1280670166015625,-0.8778533935546875,-0.453582763671875
1737749423826550300,0.60155029296875,-0.1307830810546875,-0.8823089599609375,-0.455474853515625
1737749423836617200,0.6116171875,-0.131591796875,-0.884796142578125,-0.45428466796875
1737749423846684200,0.62168408203125,-0.131866455078125,-0.8810577392578125,-0.45159912109375
1737749423856751000,0.631751220703125,-0.12969970703125,-0.8772125244140625,-0.448028564453125
1737749423866817300,0.6418173828125,-0.1301422119140625,-0.877777099609375,-0.448150634765625
1737749423876884200,0.65188427734375,-0.134246826171875,-0.8793182373046875,-0.44769287109375
1737749423886951200,0.661951171875,-0.1329193115234375,-0.8867340087890625,-0.451080322265625
1737749423897018000,0.67201806640625,-0.132049560546875,-0.8923187255859375,-0.455841064453125
1737749423907085000,0.6820849609375,-0.1295166015625,-0.8883819580078125,-0.4579315185546875
1737749423917152300,0.69215234375,-0.1291351318359375,-0.8788299560546875,-0.4606781005859375
1737749423927218200,0.70221826171875,-0.1257781982421875,-0.8744964599609375,-0.4612884521484375
1737749423937285000,0.71228515625,-0.1248016357421875,-0.88031005859375,-0.4632110595703125
1737749423947352000,0.72235205078125,-0.124786376953125,-0.88421630859375,-0.4651947021484375
1737749423957419300,0.732419189453125,-0.1244964599609375,-0.8823394775390625,-0.4656829833984375
1737749423967486200,0.742486328125,-0.123260498046875,-0.8766021728515625,-0.4618072509765625
1737749423977552100,0.75255224609375,-0.1233367919921875,-0.8724365234375,-0.4591522216796875
1737749423987619000,0.762619140625,-0.1236572265625,-0.8750457763671875,-0.4537353515625
1737749423997686300,0.772686279296875,-0.1238555908203125,-0.8791961669921875,-0.444671630859375
1737749424007753200,0.782753173828125,-0.130126953125,-0.8848419189453125,-0.4450225830078125
1737749424017820400,0.7928203125,-0.1310882568359375,-0.8891448974609375,-0.448486328125
1737749424027887400,0.802887451171875,-0.1288909912109375,-0.8896331787109375,-0.45086669921875
1737749424037953000,0.812953125,-0.124420166015625,-0.8868255615234375,-0.4532928466796875
1737749424048020500,0.8230205078125,-0.1219482421875,-0.8838348388671875,-0.4565277099609375
1737749424058087400,0.83308740234375,-0.1243896484375,-0.8797760009765625,-0.4581146240234375
1737749424068154400,0.843154296875,-0.126708984375,-0.8760223388671875,-0.453521728515625
1737749424078221300,0.85322119140625,-0.1263580322265625,-0.878326416015625,-0.451263427734375
1737749424088287200,0.863287353515625,-0.126312255859375,-0.8777618408203125,-0.4454803466796875
1737749424098354400,0.8733544921875,-0.128875732421875,-0.8756103515625,-0.446258544921875
1737749424108421400,0.88342138671875,-0.1286773681640625,-0.8752899169921875,-0.4477996826171875
1737749424118488300,0.89348828125,-0.1291351318359375,-0.8787994384765625,-0.4481964111328125
1737749424128555300,0.90355517578125,-0.1277923583984375,-0.88592529296875,-0.450927734375
1737749424138622200,0.913622314453125,-0.12615966796875,-0.8867950439453125,-0.4531402587890625
1737749424148688400,0.9236884765625,-0.12554931640625,-0.879425048828125,-0.45037841796875
1737749424158755300,0.93375537109375,-0.1265411376953125,-0.8739013671875,-0.45001220703125
1737749424168822300,0.943822265625,-0.1256256103515625,-0.8800048828125,-0.4535980224609375
1737749424178889200,0.95388916015625,-0.1234130859375,-0.88671875,-0.45587158203125
1737749424188956200,0.9639560546875,-0.1215667724609375,-0.880950927734375,-0.4524993896484375
1737749424199022300,0.974022216796875,-0.1228485107421875,-0.8770904541015625,-0.4568634033203125
1737749424209089300,0.98408935546875,-0.1239166259765625,-0.8781585693359375,-0.459136962890625
1737749424219156200,0.99415625,-0.1245269775390625,-0.8785400390625,-0.4576568603515625
1737749424229223200,1.00422314453125,-0.1240234375,-0.8835296630859375,-0.4610748291015625
1737749424239290000,1.0142900390625,-0.124481201171875,-0.8842620849609375,-0.4609832763671875
1737749424249357300,1.024357421875,-0.1252899169921875,-0.8812103271484375,-0.4573516845703125
1737749424259423200,1.03442333984375,-0.1246490478515625,-0.8779449462890625,-0.452178955078125
1737749424269490200,1.044490234375,-0.122222900390625,-0.87835693359375,-0.45062255859375
1737749424279557000,1.05455712890625,-0.1203460693359375,-0.8788909912109375,-0.451416015625
1737749424289624300,1.064624267578125,-0.1177215576171875,-0.882720947265625,-0.45440673828125
1737749424299691300,1.074691162109375,-0.119598388671875,-0.8847503662109375,-0.456878662109375
1737749424309758200,1.08475830078125,-0.1214752197265625,-0.8818817138671875,-0.4594573974609375
1737749424319824100,1.09482421875,-0.1175384521484375,-0.87158203125,-0.457244873046875
1737749424329891300,1.104891357421875,-0.1169281005859375,-0.865875244140625,-0.4576568603515625
1737749424339958300,1.114958251953125,-0.114349365234375,-0.8676910400390625,-0.45556640625
1737749424350025200,1.125025146484375,-0.112396240234375,-0.8729248046875,-0.45147705078125
1737749424360092200,1.135092041015625,-0.11614990234375,-0.8781280517578125,-0.4478759765625
1737749424370158000,1.145157958984375,-0.118560791015625,-0.8875732421875,-0.4500274658203125
1737749424380225300,1.155225341796875,-0.1175689697265625,-0.89520263671875,-0.4495086669921875
1737749424390292200,1.165292236328125,-0.1170806884765625,-0.894317626953125,-0.4523468017578125
1737749424400359200,1.175359130859375,-0.11541748046875,-0.883056640625,-0.45587158203125
1737749424410426000,1.185426025390625,-0.116943359375,-0.8780364990234375,-0.464080810546875
1737749424420493000,1.1954931640625,-0.1197357177734375,-0.874969482421875,-0.47186279296875
1737749424430559200,1.205559326171875,-0.1239471435546875,-0.8744964599609375,-0.4767608642578125
1737749424440622600,1.21562255859375,-0.12628173828125,-0.8802337646484375,-0.4783172607421875
1737749424450689500,1.225689453125,-0.124725341796875,-0.8902435302734375,-0.4818878173828125
1737749424460756500,1.235756591796875,-0.124114990234375,-0.8953094482421875,-0.47900390625
1737749424470823400,1.245823486328125,-0.1278228759765625,-0.8905487060546875,-0.469696044921875
1737749424480889600,1.2558896484375,-0.1338958740234375,-0.87640380859375,-0.455780029296875
1737749424490956500,1.26595654296875,-0.133636474609375,-0.8825225830078125,-0.4453277587890625
1737749424501023500,1.2760234375,-0.132232666015625,-0.87567138671875,-0.43017578125
1737749424511090400,1.28609033203125,-0.132904052734375,-0.8793792724609375,-0.4244537353515625
1737749424521157400,1.296157470703125,-0.12847900390625,-0.902740478515625,-0.4315948486328125
1737749424531224600,1.306224609375,-0.1217803955078125,-0.903564453125,-0.437164306640625
1737749424541290500,1.31629052734375,-0.1240997314453125,-0.8957061767578125,-0.4432220458984375
1737749424551357400,1.326357421875,-0.119781494140625,-0.8959808349609375,-0.450531005859375
1737749424561424400,1.33642431640625,-0.115234375,-0.901458740234375,-0.462371826171875
1737749424571491600,1.34649169921875,-0.109130859375,-0.908355712890625,-0.476898193359375
1737749424581558500,1.35655859375,-0.104248046875,-0.9118499755859375,-0.4936370849609375
1737749424591624400,1.36662451171875,-0.103118896484375,-0.906524658203125,-0.502044677734375
1737749424601691400,1.37669140625,-0.1023406982421875,-0.89178466796875,-0.50250244140625
1737749424611758600,1.386758544921875,-0.1029052734375,-0.8758544921875,-0.4947509765625
1737749424621825500,1.396825439453125,-0.105987548828125,-0.8691864013671875,-0.482086181640625
1737749424631892500,1.406892578125,-0.123504638671875,-0.8742828369140625,-0.47802734375
1737749424641959400,1.41695947265625,-0.1376190185546875,-0.8859710693359375,-0.490753173828125
1737749424652025300,1.427025390625,-0.1365814208984375,-0.895111083984375,-0.5052947998046875
1737749424662092500,1.437092529296875,-0.14739990234375,-0.89813232421875,-0.5200958251953125
1737749424672159500,1.447159423828125,-0.1602783203125,-0.889068603515625,-0.5300750732421875
1737749424682226400,1.457226318359375,-0.147064208984375,-0.86480712890625,-0.5316925048828125
1737749424692293400,1.46729345703125,-0.149566650390625,-0.8502655029296875,-0.5421142578125
1737749424702359600,1.477359619140625,-0.15557861328125,-0.84332275390625,-0.555572509765625
1737749424712426500,1.487426513671875,-0.1561279296875,-0.8455047607421875,-0.565032958984375
1737749424722493400,1.497493408203125,-0.1387786865234375,-0.841400146484375,-0.58172607421875
1737749424732560400,1.507560302734375,-0.148773193359375,-0.8162689208984375,-0.602783203125
1737749424742627300,1.51762744140625,-0.137115478515625,-0.78875732421875,-0.6205291748046875
1737749424752694500,1.527694580078125,-0.1278839111328125,-0.7784271240234375,-0.65374755859375
1737749424762760400,1.537760498046875,-0.1213531494140625,-0.771636962890625,-0.6810150146484375
1737749424772827400,1.547827392578125,-0.11822509765625,-0.770233154296875,-0.6962890625
1737749424782894600,1.55789453125,-0.1268310546875,-0.7737579345703125,-0.706573486328125
1737749424792961500,1.56796142578125,-0.1195831298828125,-0.7805938720703125,-0.725860595703125
1737749424803028500,1.578028564453125,-0.0991058349609375,-0.7822723388671875,-0.7446136474609375
1737749424813094400,1.588094482421875,-0.0765228271484375,-0.7747039794921875,-0.7520751953125
1737749424823161600,1.59816162109375,-0.0746307373046875,-0.7739105224609375,-0.7559051513671875
1737749424833228500,1.608228515625,-0.0930328369140625,-0.7791595458984375,-0.7548370361328125
1737749424843295500,1.61829541015625,-0.0851593017578125,-0.7876129150390625,-0.7541656494140625
1737749424853362700,1.62836279296875,-0.06585693359375,-0.7891082763671875,-0.7537841796875
1737749424863429600,1.6384296875,-0.06689453125,-0.7810211181640625,-0.7496490478515625
1737749424873495600,1.64849560546875,-0.0760498046875,-0.7839508056640625,-0.7536773681640625
1737749424883562500,1.6585625,-0.0831298828125,-0.7899017333984375,-0.7488555908203125
1737749424893629400,1.66862939453125,-0.0819854736328125,-0.7892303466796875,-0.7344207763671875
1737749424903696600,1.678696533203125,-0.0858917236328125,-0.7779083251953125,-0.6993408203125
1737749424913763600,1.688763671875,-0.0955657958984375,-0.7601318359375,-0.65850830078125
1737749424923829500,1.69882958984375,-0.1021881103515625,-0.7489166259765625,-0.6239776611328125
1737749424933896400,1.708896484375,-0.1118011474609375,-0.7407684326171875,-0.591339111328125
1737749424943963600,1.718963623046875,-0.1443634033203125,-0.7281036376953125,-0.5606689453125
1737749424954030600,1.729030517578125,-0.154266357421875,-0.713775634765625,-0.541015625
1737749424964097500,1.73909765625,-0.159423828125,-0.710968017578125,-0.5339813232421875
1737749424974163500,1.74916357421875,-0.18450927734375,-0.7121734619140625,-0.5416717529296875
1737749424984230400,1.75923046875,-0.1959228515625,-0.6956939697265625,-0.5540008544921875
1737749424994297600,1.769297607421875,-0.1899871826171875,-0.6776275634765625,-0.577362060546875
1737749425004364500,1.779364501953125,-0.1848602294921875,-0.660369873046875,-0.60595703125
1737749425014431500,1.789431396484375,-0.168060302734375,-0.644989013671875,-0.645660400390625
1737749425024498400,1.79949853515625,-0.17218017578125,-0.6243133544921875,-0.6700897216796875
1737749425034564600,1.809564697265625,-0.1634368896484375,-0.6031951904296875,-0.684844970703125
1737749425044631600,1.819631591796875,-0.134613037109375,-0.58154296875,-0.6940460205078125
1737749425054698500,1.829698486328125,-0.11993408203125,-0.567626953125,-0.7098541259765625
1737749425064765400,1.839765380859375,-0.1074371337890625,-0.5522918701171875,-0.7162017822265625
1737749425074832400,1.849832275390625,-0.0885467529296875,-0.54461669921875,-0.71575927734375
1737749425084898600,1.859898681640625,-0.0888824462890625,-0.5579681396484375,-0.730377197265625
1737749425094965500,1.869965576171875,-0.0918426513671875,-0.576446533203125,-0.7458343505859375
1737749425105032400,1.880032470703125,-0.0607452392578125,-0.5905303955078125,-0.7645111083984375
1737749425115099400,1.890099365234375,-0.0306549072265625,-0.6002960205078125,-0.7744293212890625
1737749425125166300,1.900166259765625,-0.0194854736328125,-0.60107421875,-0.75775146484375
1737749425135232500,1.910232421875,-0.01708984375,-0.6053466796875,-0.712066650390625
1737749425145299500,1.920299560546875,-0.0125885009765625,-0.6281585693359375,-0.7010650634765625
1737749425155366400,1.930366455078125,-0.0046539306640625,-0.655303955078125,-0.6956939697265625
1737749425165433300,1.940433349609375,0.011749267578125,-0.673553466796875,-0.6796875
1737749425175500300,1.950500244140625,-0.004974365234375,-0.69281005859375,-0.64312744140625
1737749425185567500,1.9605673828125,-0.0121612548828125,-0.7208404541015625,-0.6217193603515625
1737749425195633400,1.97063330078125,-0.0297088623046875,-0.743255615234375,-0.6193084716796875
1737749425205700400,1.980700439453125,-0.0525970458984375,-0.7471923828125,-0.636627197265625
1737749425215767300,1.990767333984375,-0.0561676025390625,-0.725250244140625,-0.695098876953125
1737749425225834500,2.00083447265625,-0.0559539794921875,-0.6797943115234375,-0.76318359375
1737749425235901700,2.010901611328125,-0.04296875,-0.6241607666015625,-0.8137664794921875
1737749425245967400,2.02096728515625,-0.0260009765625,-0.5840301513671875,-0.8649139404296875
1737749425256034600,2.03103466796875,-0.0074920654296875,-0.5675506591796875,-0.908721923828125
1737749425266101500,2.0411015625,0.010528564453125,-0.566650390625,-0.900421142578125
1737749425276168700,2.051168701171875,0.026947021484375,-0.5821533203125,-0.877593994140625
1737749425286235600,2.061235595703125,0.0332489013671875,-0.602203369140625,-0.85186767578125
1737749425296301600,2.071301513671875,0.0314788818359375,-0.6162261962890625,-0.804901123046875
1737749425306368500,2.081368408203125,0.0250244140625,-0.6283416748046875,-0.7458648681640625
1737749425316435500,2.091435546875,0.0074005126953125,-0.637908935546875,-0.688232421875
1737749425326502700,2.101502685546875,-0.0291900634765625,-0.64654541015625,-0.6476898193359375
1737749425336569600,2.111569580078125,-0.038848876953125,-0.650482177734375,-0.6372528076171875
1737749425346636500,2.121636474609375,-0.0376739501953125,-0.6512603759765625,-0.6358489990234375
1737749425356702500,2.131702392578125,-0.0253448486328125,-0.6613616943359375,-0.6301116943359375
1737749425366769700,2.141769775390625,-0.010986328125,-0.689422607421875,-0.6422882080078125
1737749425376836600,2.151836669921875,0.0023651123046875,-0.7319793701171875,-0.670806884765625
1737749425386903600,2.161903564453125,0.010589599609375,-0.764984130859375,-0.7049713134765625
1737749425396970500,2.171970458984375,0.0210418701171875,-0.767852783203125,-0.7363433837890625
1737749425407036400,2.182036376953125,0.0265655517578125,-0.7386322021484375,-0.7591552734375
1737749425417103600,2.192103515625,0.02984619140625,-0.695709228515625,-0.7614593505859375
1737749425427170600,2.202170654296875,0.0288848876953125,-0.66845703125,-0.74639892578125
1737749425437237500,2.212237548828125,0.0262451171875,-0.669647216796875,-0.7137603759765625
1737749425447308500,2.22230859375,0.0205535888671875,-0.687042236328125,-0.6760406494140625
1737749425457374500,2.23237451171875,0.0142822265625,-0.6999053955078125,-0.64752197265625
1737749425467441700,2.242441650390625,0.0009918212890625,-0.7027435302734375,-0.622650146484375
1737749425477508600,2.252508544921875,-0.00103759765625,-0.6978302001953125,-0.5872039794921875
1737749425487575600,2.262575439453125,0.0034027099609375,-0.6869659423828125,-0.5403900146484375
1737749425497642500,2.272642578125,0.0070037841796875,-0.679046630859375,-0.4919281005859375
1737749425507709400,2.28270947265625,-0.000213623046875,-0.6778564453125,-0.445709228515625
1737749425517775600,2.292775634765625,0.0012359619140625,-0.6781768798828125,-0.404022216796875
1737749425527842600,2.302842529296875,-0.0218048095703125,-0.6816864013671875,-0.37603759765625
1737749425537909500,2.312909423828125,-0.0658721923828125,-0.6857147216796875,-0.392730712890625
1737749425547976400,2.3229765625,-0.05633544921875,-0.69036865234375,-0.459228515625
1737749425558043400,2.33304345703125,-0.0298614501953125,-0.7078094482421875,-0.54931640625
1737749425568109600,2.343109619140625,0.002593994140625,-0.723785400390625,-0.648681640625
1737749425578176500,2.353176513671875,0.0409698486328125,-0.73382568359375,-0.74029541015625
1737749425588243500,2.363243408203125,0.0674591064453125,-0.743896484375,-0.809478759765625
1737749425598310400,2.373310302734375,0.089599609375,-0.7643585205078125,-0.8524017333984375
1737749425608377300,2.38337744140625,0.11572265625,-0.7908782958984375,-0.90179443359375
1737749425618443500,2.393443603515625,0.1356353759765625,-0.8063812255859375,-0.9710540771484375
1737749425628510500,2.403510498046875,0.168243408203125,-0.80047607421875,-1.02716064453125
1737749425638577400,2.413577392578125,0.17877197265625,-0.7790069580078125,-1.032989501953125
1737749425648644400,2.423644287109375,0.1624755859375,-0.7580718994140625,-0.9773406982421875
1737749425658711600,2.433711669921875,0.140380859375,-0.7541961669921875,-0.8866424560546875
1737749425668778500,2.443778564453125,0.1199188232421875,-0.7674560546875,-0.79486083984375
1737749425678844400,2.453844482421875,0.0844879150390625,-0.7823028564453125,-0.7125701904296875
1737749425688911400,2.463911376953125,0.0517120361328125,-0.791168212890625,-0.6307220458984375
1737749425698978300,2.473978271484375,0.0237884521484375,-0.798126220703125,-0.544525146484375
1737749425709045500,2.48404541015625,-0.003326416015625,-0.8072509765625,-0.456634521484375
1737749425719112400,2.494112548828125,-0.0343780517578125,-0.8149566650390625,-0.3795928955078125
1737749425729178400,2.504178466796875,-0.0703887939453125,-0.815216064453125,-0.333221435546875
1737749425739245300,2.514245361328125,-0.0837249755859375,-0.79638671875,-0.333770751953125
1737749425749312500,2.5243125,-0.06768798828125,-0.774688720703125,-0.3585968017578125
1737749425759379500,2.53437939453125,-0.0370941162109375,-0.7783355712890625,-0.37884521484375
1737749425769446700,2.54444677734375,-0.0117950439453125,-0.8108978271484375,-0.380279541015625
1737749425779512300,2.55451220703125,0.0048370361328125,-0.8702545166015625,-0.363677978515625
1737749425789579300,2.564579345703125,0.02099609375,-0.9501800537109375,-0.354339599609375
1737749425799646500,2.574646484375,0.035888671875,-1.02471923828125,-0.3619384765625
1737749425809713700,2.584713623046875,0.0487060546875,-1.0784759521484375,-0.370025634765625
1737749425819780600,2.594780517578125,0.054534912109375,-1.114837646484375,-0.3795623779296875
1737749425829846300,2.60484619140625,0.052459716796875,-1.1418609619140625,-0.3932952880859375
1737749425839913700,2.614913818359375,0.0484161376953125,-1.170135498046875,-0.40911865234375
1737749425849980700,2.624980712890625,0.0454559326171875,-1.206695556640625,-0.4276275634765625
1737749425860047600,2.635047607421875,0.033050537109375,-1.2241363525390625,-0.4559173583984375
1737749425870114600,2.645114501953125,0.023406982421875,-1.1902618408203125,-0.48272705078125
1737749425880181500,2.655181396484375,-0.004547119140625,-1.11492919921875,-0.504669189453125
1737749425890247700,2.66524755859375,-0.0308990478515625,-1.0376739501953125,-0.522613525390625
1737749425900314600,2.675314697265625,-0.0514373779296875,-0.9903564453125,-0.5347900390625
1737749425910381600,2.685381591796875,-0.0722808837890625,-0.97503662109375,-0.551513671875
1737749425920448500,2.695448486328125,-0.09356689453125,-0.991973876953125,-0.5747833251953125
1737749425930515500,2.705515380859375,-0.110443115234375,-1.0243377685546875,-0.5945281982421875
1737749425940581600,2.71558154296875,-0.1291656494140625,-1.0495452880859375,-0.604766845703125
1737749425950648600,2.725648681640625,-0.1501007080078125,-1.04791259765625,-0.5989837646484375
1737749425960715500,2.735715576171875,-0.1749420166015625,-1.013671875,-0.5708465576171875
1737749425970782500,2.745782470703125,-0.201629638671875,-0.9630126953125,-0.5177764892578125
1737749425980849400,2.755849365234375,-0.221282958984375,-0.913238525390625,-0.4526824951171875
1737749425990915600,2.76591552734375,-0.2301483154296875,-0.8878021240234375,-0.405120849609375
1737749426000982500,2.775982421875,-0.2351226806640625,-0.8878021240234375,-0.378204345703125
1737749426011049500,2.786049560546875,-0.2291107177734375,-0.9023895263671875,-0.3639984130859375
1737749426021116400,2.796116455078125,-0.21185302734375,-0.9187164306640625,-0.3519439697265625
1737749426031183400,2.806183349609375,-0.189483642578125,-0.9347381591796875,-0.33587646484375
1737749426041249500,2.81624951171875,-0.16778564453125,-0.9532928466796875,-0.3233184814453125
1737749426051316500,2.82631640625,-0.150115966796875,-0.9748077392578125,-0.321075439453125
1737749426061383400,2.836383544921875,-0.13665771484375,-0.9946441650390625,-0.314666748046875
1737749426071450400,2.846450439453125,-0.129425048828125,-1.00067138671875,-0.298980712890625
1737749426081517600,2.856517578125,-0.12762451171875,-0.99530029296875,-0.2818450927734375
1737749426091583500,2.86658349609375,-0.131195068359375,-0.9835357666015625,-0.26849365234375
1737749426101650400,2.876650390625,-0.1358795166015625,-0.964263916015625,-0.2558135986328125
1737749426111717400,2.88671728515625,-0.142059326171875,-0.938995361328125,-0.24652099609375
1737749426121784600,2.89678466796875,-0.1485748291015625,-0.90716552734375,-0.2411346435546875
1737749426131851500,2.9068515625,-0.1524658203125,-0.8763580322265625,-0.239654541015625
1737749426141917400,2.91691748046875,-0.1596527099609375,-0.855499267578125,-0.235595703125
1737749426151984400,2.926984375,-0.1575775146484375,-0.843780517578125,-0.2384033203125
1737749426162051300,2.93705126953125,-0.1558380126953125,-0.8390045166015625,-0.2421722412109375
1737749426172118500,2.947118408203125,-0.1548919677734375,-0.828582763671875,-0.2391815185546875
1737749426182185500,2.957185546875,-0.149658203125,-0.8100433349609375,-0.2363739013671875
1737749426192251400,2.96725146484375,-0.143524169921875,-0.79827880859375,-0.2397613525390625
1737749426202318300,2.977318359375,-0.1444244384765625,-0.797943115234375,-0.24365234375
1737749426212385500,2.987385498046875,-0.1466522216796875,-0.8089141845703125,-0.2474365234375
1737749426222452500,2.997452392578125,-0.146636962890625,-0.8191070556640625,-0.2528533935546875
1737749426232519400,3.00751953125,-0.1493682861328125,-0.8114776611328125,-0.2681427001953125
1737749426242585300,3.01758544921875,-0.1589202880859375,-0.7856903076171875,-0.2928009033203125
1737749426252652300,3.02765234375,-0.161102294921875,-0.7573699951171875,-0.3157806396484375
1737749426262719500,3.037719482421875,-0.156158447265625,-0.744140625,-0.3351287841796875
1737749426272786400,3.047786376953125,-0.1507415771484375,-0.7468719482421875,-0.3521728515625
1737749426282853600,3.057853515625,-0.1469879150390625,-0.7571563720703125,-0.3759002685546875
1737749426292919300,3.067919189453125,-0.14288330078125,-0.7679290771484375,-0.401336669921875
1737749426302986500,3.077986572265625,-0.1397552490234375,-0.7697601318359375,-0.41888427734375
1737749426313053700,3.0880537109375,-0.1387176513671875,-0.76641845703125,-0.4314422607421875
1737749426323120600,3.09812060546875,-0.1379852294921875,-0.76397705078125,-0.4353790283203125
1737749426333187600,3.1081875,-0.1414947509765625,-0.7641754150390625,-0.4302825927734375
1737749426343253500,3.11825341796875,-0.1434326171875,-0.7702178955078125,-0.4184722900390625
1737749426353320700,3.12832080078125,-0.1504974365234375,-0.78045654296875,-0.407501220703125
1737749426363387600,3.1383876953125,-0.1629180908203125,-0.792724609375,-0.40008544921875
1737749426373454600,3.14845458984375,-0.172698974609375,-0.807952880859375,-0.3944091796875
1737749426383521500,3.158521484375,-0.1796112060546875,-0.8232574462890625,-0.3823394775390625
1737749426393588500,3.16858837890625,-0.1914825439453125,-0.8314971923828125,-0.3667449951171875
1737749426403654700,3.178654541015625,-0.1972808837890625,-0.83203125,-0.353790283203125
1737749426413721600,3.1887216796875,-0.200286865234375,-0.827056884765625,-0.337188720703125
1737749426423788500,3.19878857421875,-0.210479736328125,-0.82427978515625,-0.3170928955078125
1737749426433855500,3.20885546875,-0.1974945068359375,-0.8492889404296875,-0.307891845703125
1737749426443917600,3.21891748046875,-0.1759796142578125,-0.9043121337890625,-0.30609130859375
1737749426453984500,3.228984619140625,-0.1582183837890625,-0.9720611572265625,-0.2969818115234375
1737749426464051500,3.239051513671875,-0.1396942138671875,-1.0447235107421875,-0.28399658203125
1737749426474118400,3.249118408203125,-0.112548828125,-1.130340576171875,-0.26287841796875
1737749426484185300,3.259185302734375,-0.0926055908203125,-1.22857666015625,-0.233642578125
1737749426494252500,3.26925244140625,-0.070709228515625,-1.3216400146484375,-0.196533203125
1737749426504318500,3.279318359375,-0.0571136474609375,-1.3524017333984375,-0.14642333984375
1737749426514385400,3.289385498046875,-0.0643157958984375,-1.33709716796875,-0.10504150390625
1737749426524452400,3.299452392578125,-0.0643768310546875,-1.3131561279296875,-0.0780487060546875
1737749426534519600,3.30951953125,-0.052581787109375,-1.273651123046875,-0.035064697265625
1737749426544586500,3.31958642578125,-0.0483856201171875,-1.22979736328125,-0.0012664794921875
1737749426554652400,3.32965234375,-0.0507049560546875,-1.1942291259765625,0.00933837890625
1737749426564719400,3.33971923828125,-0.0540618896484375,-1.16009521484375,0.0203857421875
1737749426574786300,3.349786376953125,-0.047760009765625,-1.111846923828125,0.0437164306640625
1737749426584853500,3.359853515625,-0.0384521484375,-1.0612640380859375,0.0703582763671875
1737749426594920400,3.36992041015625,-0.0323333740234375,-1.0269317626953125,0.085174560546875
1737749426604986400,3.379986328125,-0.027740478515625,-1.0167999267578125,0.0858917236328125
1737749426615053300,3.39005322265625,-0.0071563720703125,-1.0226593017578125,0.0851287841796875
1737749426625120500,3.40012060546875,0.014129638671875,-1.03680419921875,0.0736541748046875
1737749426635187500,3.4101875,0.0300750732421875,-1.0441436767578125,0.0363616943359375
1737749426645254700,3.420254638671875,0.0517578125,-1.0388641357421875,-0.010040283203125
1737749426655320300,3.4303203125,0.0734100341796875,-1.01513671875,-0.0414581298828125
1737749426665387500,3.440387451171875,0.096893310546875,-0.98455810546875,-0.06988525390625
1737749426675454500,3.450454345703125,0.115234375,-0.967315673828125,-0.107421875
1737749426685521700,3.460521728515625,0.0993194580078125,-0.965301513671875,-0.142791748046875
1737749426695588600,3.470588623046875,0.106689453125,-0.981170654296875,-0.1672821044921875
1737749426705654300,3.480654296875,0.0809478759765625,-0.998931884765625,-0.174652099609375
1737749426715721700,3.4907216796875,0.1284332275390625,-1.0107574462890625,-0.1697998046875
1737749426725788700,3.50078857421875,0.10394287109375,-0.994049072265625,-0.140960693359375
1737749426735855600,3.510855712890625,0.1144256591796875,-0.98834228515625,-0.1119537353515625
1737749426745922600,3.520922607421875,0.1057891845703125,-0.98577880859375,-0.0854949951171875
1737749426755988500,3.530988525390625,0.0930023193359375,-0.9842987060546875,-0.069732666015625
1737749426766055700,3.5410556640625,0.078216552734375,-0.9822845458984375,-0.0716400146484375
1737749426776122600,3.55112255859375,0.070343017578125,-0.975189208984375,-0.0773468017578125
1737749426786189600,3.561189453125,0.0723724365234375,-0.959381103515625,-0.08953857421875
1737749426796256500,3.571256591796875,0.076324462890625,-0.9438629150390625,-0.1228179931640625
1737749426806322700,3.58132275390625,0.0850067138671875,-0.9375,-0.171539306640625
1737749426816389600,3.5913896484375,0.1148529052734375,-0.93701171875,-0.22174072265625
1737749426826456600,3.60145654296875,0.1399078369140625,-0.9376373291015625,-0.267730712890625
1737749426836523500,3.6115234375,0.1434326171875,-0.94097900390625,-0.301544189453125
1737749426846590500,3.621590576171875,0.165374755859375,-0.946563720703125,-0.323089599609375
1737749426856656600,3.63165673828125,0.1771392822265625,-0.9500579833984375,-0.3332061767578125
1737749426866723600,3.6417236328125,0.1671142578125,-0.952667236328125,-0.3330535888671875
1737749426876790500,3.65179052734375,0.16229248046875,-0.94952392578125,-0.3229522705078125
1737749426886857500,3.661857421875,0.1790008544921875,-0.932952880859375,-0.2969207763671875
1737749426896924400,3.67192431640625,0.156005859375,-0.9142608642578125,-0.260894775390625
1737749426906990600,3.681990478515625,0.130523681640625,-0.91546630859375,-0.2291259765625
1737749426917057500,3.6920576171875,0.1024017333984375,-0.937652587890625,-0.2077484130859375
1737749426927124500,3.70212451171875,0.079345703125,-0.9699859619140625,-0.1990814208984375
1737749426937191400,3.71219140625,0.0599365234375,-0.9869537353515625,-0.191375732421875
1737749426947258400,3.72225830078125,0.00390625,-1.00103759765625,-0.1810760498046875
1737749426957324500,3.732324462890625,-0.031524658203125,-1.028167724609375,-0.19635009765625
1737749426967391500,3.7423916015625,-0.0543670654296875,-1.0570220947265625,-0.2136383056640625
1737749426977458400,3.75245849609375,-0.064666748046875,-1.0895538330078125,-0.22021484375
1737749426987525400,3.762525390625,-0.0890960693359375,-1.12591552734375,-0.2239837646484375
1737749426997592600,3.772592529296875,-0.10113525390625,-1.159423828125,-0.228363037109375
1737749427007658500,3.782658447265625,-0.101806640625,-1.184814453125,-0.2275543212890625
1737749427017725400,3.792725341796875,-0.104827880859375,-1.2110595703125,-0.222198486328125
1737749427027792400,3.80279248046875,-0.116790771484375,-1.2371063232421875,-0.224853515625
1737749427037859300,3.812859375,-0.1168670654296875,-1.2522430419921875,-0.2346649169921875
1737749427047926500,3.822926513671875,-0.0809783935546875,-1.2317352294921875,-0.2500762939453125
1737749427057992400,3.832992431640625,-0.0399169921875,-1.160980224609375,-0.28521728515625
1737749427068059400,3.843059326171875,-0.0176239013671875,-1.0857391357421875,-0.337921142578125
1737749427078126300,3.853126220703125,0.0068206787109375,-1.047607421875,-0.3917388916015625
1737749427088193500,3.863193603515625,0.0247344970703125,-1.0395965576171875,-0.41827392578125
1737749427098260500,3.873260498046875,0.0311737060546875,-1.042144775390625,-0.41015625
1737749427108326400,3.883326416015625,0.02978515625,-1.0468902587890625,-0.3756866455078125
1737749427118393300,3.893393310546875,0.03472900390625,-1.043731689453125,-0.315521240234375
1737749427128460300,3.903460205078125,0.034637451171875,-1.030975341796875,-0.2450408935546875
1737749427138527500,3.913527587890625,0.0206298828125,-1.0356597900390625,-0.1935272216796875
1737749427148594400,3.923594482421875,0.0069427490234375,-1.0595855712890625,-0.1666717529296875
1737749427158660400,3.933660400390625,0.0065765380859375,-1.10040283203125,-0.1663970947265625
1737749427168727300,3.943727294921875,0.002685546875,-1.1621246337890625,-0.17645263671875
1737749427178794500,3.95379443359375,-0.0262451171875,-1.211029052734375,-0.1729888916015625
1737749427188861700,3.96386181640625,-0.098052978515625,-1.2039031982421875,-0.15643310546875
1737749427198928600,3.9739287109375,-0.1436004638671875,-1.1329803466796875,-0.149688720703125
1737749427208994300,3.983994384765625,-0.1474609375,-0.9972991943359375,-0.1590423583984375
1737749427219061500,3.9940615234375,-0.14910888671875,-0.8690338134765625,-0.1926422119140625
1737749427229128700,4.004128662109375,-0.144866943359375,-0.792388916015625,-0.2313690185546875
1737749427239195600,4.014195556640625,-0.164642333984375,-0.78192138671875,-0.2739410400390625
1737749427249262600,4.0242626953125,-0.17767333984375,-0.8432769775390625,-0.3388824462890625
1737749427259328500,4.03432861328125,-0.1610565185546875,-0.919158935546875,-0.3878021240234375
1737749427269395700,4.044395751953125,-0.093414306640625,-0.953125,-0.3902587890625
1737749427279462700,4.054462646484375,-0.0513153076171875,-0.9555816650390625,-0.352325439453125
1737749427289529600,4.064529541015625,-0.0970306396484375,-0.9780731201171875,-0.2950592041015625
1737749427299596500,4.074596435546875,-0.162078857421875,-1.021881103515625,-0.235321044921875
1737749427309662500,4.084662353515625,-0.168731689453125,-1.017333984375,-0.15911865234375
1737749427319729700,4.094729736328125,-0.172149658203125,-0.9617156982421875,-0.0556488037109375
1737749427329796600,4.104796630859375,-0.2218017578125,-0.891937255859375,-0.001190185546875
1737749427339863600,4.114863525390625,-0.2778167724609375,-0.83642578125,-0.0475921630859375
1737749427349930500,4.124930419921875,-0.3020782470703125,-0.7797393798828125,-0.127532958984375
1737749427359996700,4.13499658203125,-0.299774169921875,-0.731414794921875,-0.17596435546875
1737749427370063600,4.145063720703125,-0.2767333984375,-0.7074127197265625,-0.197845458984375
1737749427380130600,4.155130615234375,-0.27484130859375,-0.7036895751953125,-0.205047607421875
1737749427390197500,4.165197509765625,-0.3003997802734375,-0.7063751220703125,-0.201904296875
1737749427400264400,4.175264404296875,-0.38787841796875,-0.7040863037109375,-0.201934814453125
1737749427410330600,4.18533056640625,-0.4949188232421875,-0.7214813232421875,-0.223724365234375
1737749427420397600,4.1953974609375,-0.4743804931640625,-0.79095458984375,-0.2578582763671875
1737749427430464500,4.205464599609375,-0.3453521728515625,-0.906585693359375,-0.2223052978515625
1737749427440531500,4.215531494140625,-0.2711944580078125,-1.0170135498046875,-0.0987396240234375
1737749427450599400,4.225599365234375,-0.2639923095703125,-1.082733154296875,0.017791748046875
1737749427460665300,4.235665283203125,-0.2989349365234375,-1.089080810546875,0.08453369140625
1737749427470732300,4.245732177734375,-0.32196044921875,-1.0138397216796875,0.0749969482421875
1737749427480799500,4.255799560546875,-0.3611297607421875,-0.88775634765625,0.0011444091796875
1737749427490866400,4.265866455078125,-0.356292724609375,-0.7728424072265625,-0.081298828125
1737749427500933400,4.275933349609375,-0.3016510009765625,-0.707855224609375,-0.1247100830078125
1737749427510999600,4.28599951171875,-0.2551116943359375,-0.7209625244140625,-0.11590576171875
1737749427521066500,4.29606640625,-0.2655792236328125,-0.8114471435546875,-0.0912628173828125
1737749427531133400,4.306133544921875,-0.3075103759765625,-0.9210968017578125,-0.0950775146484375
1737749427541200400,4.316200439453125,-0.3528594970703125,-0.9541473388671875,-0.12677001953125
1737749427551267300,4.326267333984375,-0.35748291015625,-0.8908843994140625,-0.1890716552734375
1737749427561333500,4.33633349609375,-0.3217010498046875,-0.78619384765625,-0.2699432373046875
1737749427571400400,4.346400390625,-0.2983245849609375,-0.7115020751953125,-0.3534393310546875
1737749427581467400,4.35646728515625,-0.3089141845703125,-0.701812744140625,-0.436981201171875
1737749427591534300,4.366534423828125,-0.335296630859375,-0.73272705078125,-0.5059356689453125
1737749427601601300,4.376601318359375,-0.362213134765625,-0.755462646484375,-0.5356903076171875
1737749427611667500,4.38666748046875,-0.3409881591796875,-0.745697021484375,-0.520660400390625
1737749427621734400,4.396734375,-0.3265380859375,-0.714752197265625,-0.46893310546875
1737749427631801300,4.40680126953125,-0.32794189453125,-0.7015228271484375,-0.4134063720703125
1737749427641868300,4.416868408203125,-0.33447265625,-0.719757080078125,-0.3769378662109375
1737749427651935200,4.426935302734375,-0.3319244384765625,-0.7480926513671875,-0.3547515869140625
1737749427662001400,4.43700146484375,-0.3140716552734375,-0.757415771484375,-0.3404693603515625
1737749427672068400,4.447068359375,-0.29180908203125,-0.7403411865234375,-0.3363037109375
1737749427682135300,4.45713525390625,-0.2734375,-0.711883544921875,-0.3425445556640625
1737749427692202200,4.4672021484375,-0.2563934326171875,-0.69403076171875,-0.349578857421875
1737749427702269400,4.47726953125,-0.2332611083984375,-0.6863250732421875,-0.3515625
1737749427712335400,4.48733544921875,-0.220367431640625,-0.672271728515625,-0.338958740234375
1737749427722402300,4.49740234375,-0.2260284423828125,-0.64605712890625,-0.3177642822265625
1737749427732469200,4.50746923828125,-0.2244720458984375,-0.6021881103515625,-0.298248291015625
1737749427742536200,4.5175361328125,-0.231536865234375,-0.54705810546875,-0.273406982421875
1737749427752603400,4.527603271484375,-0.24774169921875,-0.494537353515625,-0.2411041259765625
1737749427762670300,4.53767041015625,-0.2672882080078125,-0.4503326416015625,-0.2099609375
1737749427772736300,4.547736328125,-0.274688720703125,-0.415283203125,-0.184356689453125
1737749427782803200,4.55780322265625,-0.2700042724609375,-0.3930816650390625,-0.158660888671875
1737749427792870400,4.567870361328125,-0.280242919921875,-0.3823394775390625,-0.128936767578125
1737749427802937300,4.577937255859375,-0.2951202392578125,-0.3843994140625,-0.0947265625
1737749427813004300,4.58800439453125,-0.2938690185546875,-0.395477294921875,-0.064361572265625
1737749427823070200,4.5980703125,-0.2936553955078125,-0.4226531982421875,-0.0396575927734375
1737749427833137200,4.60813720703125,-0.3110809326171875,-0.4694671630859375,-0.0275726318359375
1737749427843204400,4.618204345703125,-0.32275390625,-0.5331573486328125,-0.0364227294921875
1737749427853271300,4.628271240234375,-0.3341522216796875,-0.61865234375,-0.0527801513671875
1737749427863338200,4.638338134765625,-0.35137939453125,-0.7297210693359375,-0.0673065185546875
1737749427873404200,4.648404052734375,-0.3680419921875,-0.8562164306640625,-0.0764617919921875
1737749427883471400,4.658471435546875,-0.3502044677734375,-1.0050506591796875,-0.08270263671875
1737749427893538300,4.668538330078125,-0.3199462890625,-1.205810546875,-0.093597412109375
1737749427903605200,4.678605224609375,-0.299346923828125,-1.4499969482421875,-0.11199951171875
1737749427913672400,4.68867236328125,-0.3043975830078125,-1.647705078125,-0.1183624267578125
1737749427923738400,4.69873828125,-0.3490142822265625,-1.6917877197265625,-0.0901641845703125
1737749427933805300,4.708805419921875,-0.4057769775390625,-1.5643310546875,-0.0312957763671875
1737749427943872300,4.718872314453125,-0.46112060546875,-1.3725738525390625,0.020843505859375
1737749427953939500,4.728939453125,-0.4848785400390625,-1.23809814453125,0.04608154296875
1737749427964006400,4.73900634765625,-0.480560302734375,-1.20159912109375,0.0588836669921875
1737749427974072300,4.749072265625,-0.4676361083984375,-1.28253173828125,0.059600830078125
1737749427984139500,4.759139404296875,-0.4483184814453125,-1.44097900390625,0.0610504150390625
1737749427994206500,4.76920654296875,-0.4232940673828125,-1.551666259765625,0.079559326171875
1737749428004273400,4.7792734375,-0.4136810302734375,-1.5586090087890625,0.0833892822265625
1737749428014340400,4.78934033203125,-0.4167633056640625,-1.4896240234375,0.0621185302734375
1737749428024406500,4.799406494140625,-0.4051513671875,-1.396820068359375,0.036895751953125
1737749428034473500,4.809473388671875,-0.3763427734375,-1.3404388427734375,0.002227783203125
1737749428044540400,4.81954052734375,-0.3442840576171875,-1.3401947021484375,-0.044830322265625
1737749428054607400,4.829607421875,-0.310028076171875,-1.3738250732421875,-0.0977325439453125
1737749428064674300,4.83967431640625,-0.2718658447265625,-1.386077880859375,-0.143768310546875
1737749428074740500,4.849740478515625,-0.2427978515625,-1.354736328125,-0.18560791015625
1737749428084807400,4.859807373046875,-0.229705810546875,-1.29833984375,-0.2245025634765625
1737749428094874400,4.869874267578125,-0.211517333984375,-1.22979736328125,-0.25640869140625
1737749428104941300,4.87994140625,-0.2038421630859375,-1.1475677490234375,-0.2707366943359375
1737749428115008300,4.89000830078125,-0.2095489501953125,-1.0705718994140625,-0.2784271240234375
1737749428125074400,4.900074462890625,-0.2082366943359375,-1.0061492919921875,-0.291290283203125
1737749428135141400,4.910141357421875,-0.21087646484375,-0.951995849609375,-0.3075714111328125
1737749428145208300,4.920208251953125,-0.216461181640625,-0.911041259765625,-0.324066162109375
1737749428155275300,4.930275146484375,-0.2197113037109375,-0.8766632080078125,-0.32672119140625
1737749428165342200,4.94034228515625,-0.2230072021484375,-0.837493896484375,-0.307861328125
1737749428175408400,4.950408447265625,-0.2230682373046875,-0.803741455078125,-0.2725067138671875
1737749428185475300,4.960475341796875,-0.2206878662109375,-0.776824951171875,-0.2330169677734375
1737749428195542300,4.970542236328125,-0.219757080078125,-0.7564849853515625,-0.188873291015625
1737749428205609200,4.980609130859375,-0.2186126708984375,-0.7440643310546875,-0.1449737548828125
1737749428215676400,4.990676513671875,-0.21234130859375,-0.74237060546875,-0.1055908203125
1737749428225742300,5.000742431640625,-0.205078125,-0.7484130859375,-0.072418212890625
1737749428235809300,5.010809326171875,-0.1996002197265625,-0.760955810546875,-0.0463409423828125
1737749428245876200,5.020876220703125,-0.197509765625,-0.777862548828125,-0.0279388427734375
1737749428255943400,5.030943359375,-0.186920166015625,-0.7980499267578125,-0.011260986328125
1737749428266010400,5.04101025390625,-0.1754608154296875,-0.8166656494140625,0.005615234375
1737749428276077300,5.051077392578125,-0.1654052734375,-0.835540771484375,0.0236358642578125
1737749428286143200,5.061143310546875,-0.160430908203125,-0.8591766357421875,0.0382232666015625
1737749428296210200,5.071210205078125,-0.1624755859375,-0.8980865478515625,0.0446319580078125
1737749428306277400,5.08127734375,-0.1691436767578125,-0.9584808349609375,0.035491943359375
1737749428316344300,5.09134423828125,-0.175628662109375,-1.020233154296875,0.0206298828125
1737749428326411300,5.101411376953125,-0.1835174560546875,-1.061553955078125,0.002777099609375
1737749428336477200,5.111477294921875,-0.190582275390625,-1.0692901611328125,-0.005828857421875
1737749428346544400,5.12154443359375,-0.203521728515625,-1.0452423095703125,-0.0033721923828125
1737749428356611300,5.131611328125,-0.230010986328125,-1.014190673828125,0.0050201416015625
1737749428366678300,5.14167822265625,-0.2557220458984375,-0.9914398193359375,0.0146636962890625
1737749428376745200,5.1517451171875,-0.2713775634765625,-0.977203369140625,0.023193359375
1737749428386811100,5.16181103515625,-0.277130126953125,-0.9678192138671875,0.032928466796875
1737749428396878300,5.17187841796875,-0.2879638671875,-0.9588775634765625,0.0396575927734375
1737749428406945300,5.1819453125,-0.30841064453125,-0.9418182373046875,0.0372314453125
1737749428417012200,5.19201220703125,-0.325347900390625,-0.921234130859375,0.029632568359375
1737749428427079400,5.202079345703125,-0.3362884521484375,-0.8967437744140625,0.0291748046875
1737749428437145300,5.212145263671875,-0.355072021484375,-0.871826171875,0.03912353515625
1737749428447211500,5.22221142578125,-0.3765106201171875,-0.8459014892578125,0.0465545654296875
1737749428457278500,5.232278564453125,-0.3965606689453125,-0.820770263671875,0.0380096435546875
1737749428467345400,5.242345458984375,-0.4217376708984375,-0.797119140625,0.0248260498046875
1737749428477412400,5.252412353515625,-0.444793701171875,-0.7756500244140625,0.0107879638671875
1737749428487478500,5.262478515625,-0.46026611328125,-0.7491302490234375,-0.000823974609375
1737749428497545500,5.27254541015625,-0.467926025390625,-0.71905517578125,-0.01129150390625
1737749428507612400,5.2826123046875,-0.46820068359375,-0.7118377685546875,-0.0156402587890625
1737749428517679400,5.292679443359375,-0.485443115234375,-0.743682861328125,-0.025604248046875
1737749428527746600,5.30274658203125,-0.513763427734375,-0.786773681640625,-0.0557708740234375
1737749428537813500,5.3128134765625,-0.542388916015625,-0.8151397705078125,-0.0939483642578125
1737749428547879400,5.32287939453125,-0.557342529296875,-0.815765380859375,-0.11700439453125
1737749428557946400,5.3329462890625,-0.55377197265625,-0.792938232421875,-0.1200714111328125
1737749428568013300,5.343013427734375,-0.548797607421875,-0.7725372314453125,-0.1099853515625
1737749428578080500,5.35308056640625,-0.556671142578125,-0.775482177734375,-0.0784912109375
1737749428588147500,5.3631474609375,-0.576995849609375,-0.789093017578125,-0.027679443359375
1737749428598213400,5.37321337890625,-0.595855712890625,-0.8122406005859375,0.0194244384765625
1737749428608280300,5.3832802734375,-0.6113433837890625,-0.8556060791015625,0.035491943359375
1737749428618347500,5.393347412109375,-0.6231231689453125,-0.9001007080078125,0.0189666748046875
1737749428628414500,5.40341455078125,-0.6295318603515625,-0.917205810546875,-0.0061492919921875
1737749428638481400,5.4134814453125,-0.6388092041015625,-0.893463134765625,-0.01861572265625
1737749428648547300,5.42354736328125,-0.6537322998046875,-0.849853515625,-0.0113067626953125
1737749428658614300,5.4336142578125,-0.6636505126953125,-0.82122802734375,0.01715087890625
1737749428668681500,5.443681396484375,-0.674591064453125,-0.8101806640625,0.0598907470703125
1737749428678748700,5.453748779296875,-0.6855621337890625,-0.7988128662109375,0.10650634765625
1737749428688815600,5.463815673828125,-0.6926116943359375,-0.7746734619140625,0.13775634765625
1737749428698881300,5.47388134765625,-0.7023162841796875,-0.738433837890625,0.1447296142578125
1737749428708948700,5.48394873046875,-0.7075653076171875,-0.69720458984375,0.1288909912109375
1737749428719015700,5.494015625,-0.7077484130859375,-0.66375732421875,0.097686767578125
1737749428729082600,5.50408251953125,-0.712615966796875,-0.6477203369140625,0.06866455078125
1737749428739149600,5.514149658203125,-0.7162322998046875,-0.6529541015625,0.0500946044921875
1737749428749216500,5.524216552734375,-0.7167816162109375,-0.6694488525390625,0.039886474609375
1737749428759282700,5.53428271484375,-0.7169342041015625,-0.6860504150390625,0.0323486328125
1737749428769349600,5.544349609375,-0.7188262939453125,-0.6963043212890625,0.0270538330078125
1737749428779416600,5.55441650390625,-0.71722412109375,-0.6878509521484375,0.0155487060546875
1737749428789483500,5.5644833984375,-0.714385986328125,-0.663055419921875,0.0063018798828125
1737749428799550500,5.574550537109375,-0.7116851806640625,-0.62908935546875,0.0068817138671875
1737749428809616600,5.58461669921875,-0.7083740234375,-0.593048095703125,0.020111083984375
1737749428819683600,5.59468359375,-0.707977294921875,-0.5657958984375,0.0464935302734375
1737749428829750500,5.60475048828125,-0.7057647705078125,-0.550689697265625,0.0746612548828125
1737749428839817500,5.6148173828125,-0.7103118896484375,-0.5516510009765625,0.099090576171875
1737749428849884400,5.624884521484375,-0.7120819091796875,-0.568084716796875,0.1140899658203125
1737749428859950600,5.63495068359375,-0.703399658203125,-0.5922088623046875,0.1147918701171875
1737749428870017500,5.645017578125,-0.6910552978515625,-0.6153411865234375,0.10955810546875
1737749428880084500,5.65508447265625,-0.673980712890625,-0.6317291259765625,0.100921630859375
1737749428890151400,5.6651513671875,-0.658294677734375,-0.6398773193359375,0.087127685546875
1737749428900218400,5.67521826171875,-0.6479949951171875,-0.6371002197265625,0.074371337890625
1737749428910285600,5.68528564453125,-0.6360321044921875,-0.6259307861328125,0.06268310546875
1737749428920351500,5.6953515625,-0.6215057373046875,-0.6145782470703125,0.0609130859375
1737749428930418400,5.70541845703125,-0.6159515380859375,-0.5989227294921875,0.0699310302734375
1737749428940485400,5.7154853515625,-0.6168060302734375,-0.58026123046875,0.089508056640625
1737749428950552600,5.725552490234375,-0.6196136474609375,-0.56146240234375,0.1092376708984375
1737749428960619500,5.73561962890625,-0.6310882568359375,-0.5408935546875,0.1295318603515625
1737749428970685400,5.745685546875,-0.641510009765625,-0.523162841796875,0.1446075439453125
1737749428980752400,5.75575244140625,-0.662261962890625,-0.5206756591796875,0.1566162109375
1737749428990819300,5.7658193359375,-0.690826416015625,-0.5307159423828125,0.1639404296875
1737749429000886500,5.775886474609375,-0.716217041015625,-0.5371856689453125,0.17474365234375
1737749429010953500,5.785953369140625,-0.7296905517578125,-0.5455322265625,0.1881103515625
1737749429021020400,5.7960205078125,-0.7367095947265625,-0.561279296875,0.2029266357421875
1737749429031086300,5.80608642578125,-0.7471160888671875,-0.57806396484375,0.224456787109375
1737749429041153500,5.816153564453125,-0.7670135498046875,-0.579437255859375,0.2500762939453125
1737749429051220500,5.826220458984375,-0.789306640625,-0.5579376220703125,0.2739105224609375
1737749429061287400,5.836287353515625,-0.8118896484375,-0.5325164794921875,0.2912750244140625
1737749429071354400,5.846354248046875,-0.8328857421875,-0.5204315185546875,0.3005828857421875
1737749429081420500,5.856420654296875,-0.854583740234375,-0.5182952880859375,0.309478759765625
1737749429091487500,5.866487548828125,-0.8811798095703125,-0.5258941650390625,0.32196044921875
1737749429101554400,5.876554443359375,-0.9044952392578125,-0.54248046875,0.33575439453125
1737749429111621400,5.886621337890625,-0.9162445068359375,-0.57098388671875,0.3469696044921875
1737749429121688600,5.8966884765625,-0.91973876953125,-0.6194305419921875,0.3472137451171875
1737749429131754500,5.90675439453125,-0.9216766357421875,-0.684173583984375,0.347930908203125
1737749429141821400,5.916821533203125,-0.919891357421875,-0.748260498046875,0.3548431396484375
1737749429151888600,5.926888671875,-0.9156494140625,-0.784210205078125,0.3668060302734375
1737749429161955600,5.93695556640625,-0.9120635986328125,-0.7807769775390625,0.37322998046875
1737749429172022500,5.9470224609375,-0.9044036865234375,-0.7501983642578125,0.3759307861328125
1737749429182089500,5.95708935546875,-0.8794097900390625,-0.711090087890625,0.3837738037109375
1737749429192155600,5.96715576171875,-0.849151611328125,-0.6715240478515625,0.39013671875
1737749429202222600,5.97722265625,-0.831024169921875,-0.6425018310546875,0.387420654296875
1737749429212289500,5.98728955078125,-0.816192626953125,-0.6213836669921875,0.37884521484375
1737749429222356500,5.9973564453125,-0.8017730712890625,-0.600372314453125,0.3772430419921875
1737749429232423400,6.00742333984375,-0.791107177734375,-0.587249755859375,0.3899383544921875
1737749429242489600,6.017489501953125,-0.77813720703125,-0.5855255126953125,0.4065399169921875
1737749429252556500,6.027556640625,-0.7669677734375,-0.5823822021484375,0.4226837158203125
1737749429262623500,6.03762353515625,-0.76495361328125,-0.584625244140625,0.4369354248046875
1737749429272690400,6.0476904296875,-0.7613067626953125,-0.601593017578125,0.445556640625
1737749429282757600,6.057757568359375,-0.7528839111328125,-0.6345062255859375,0.445526123046875
1737749429292824600,6.067824462890625,-0.747650146484375,-0.6669921875,0.4417266845703125
1737749429302890500,6.077890380859375,-0.743255615234375,-0.6840972900390625,0.43756103515625
1737749429312957400,6.08795751953125,-0.7311553955078125,-0.680694580078125,0.436431884765625
1737749429323024400,6.0980244140625,-0.71490478515625,-0.6625518798828125,0.451446533203125
1737749429333091600,6.108091552734375,-0.706756591796875,-0.6361846923828125,0.4702301025390625
1737749429343158500,6.118158447265625,-0.71026611328125,-0.607666015625,0.48663330078125
1737749429353224400,6.128224365234375,-0.7099151611328125,-0.5787506103515625,0.49884033203125
1737749429363291400,6.13829150390625,-0.6958160400390625,-0.55657958984375,0.5034332275390625
1737749429373358600,6.148358642578125,-0.672271728515625,-0.5473175048828125,0.5040130615234375
1737749429383425500,6.158425537109375,-0.648956298828125,-0.5498809814453125,0.503997802734375
1737749429393492500,6.168492431640625,-0.6395263671875,-0.5528411865234375,0.5054473876953125
1737749429403559400,6.178559326171875,-0.6380615234375,-0.546875,0.5077667236328125
1737749429413625600,6.18862548828125,-0.6471710205078125,-0.532867431640625,0.512359619140625
1737749429423692500,6.198692626953125,-0.66259765625,-0.515167236328125,0.5213165283203125
1737749429433759500,6.208759521484375,-0.678192138671875,-0.49664306640625,0.5289306640625
1737749429443826400,6.218826416015625,-0.6927032470703125,-0.4753265380859375,0.5355224609375
1737749429453897700,6.228897705078125,-0.70916748046875,-0.4586944580078125,0.542144775390625
1737749429463963600,6.238963623046875,-0.725189208984375,-0.455810546875,0.54095458984375
1737749429474030800,6.24903076171875,-0.7379913330078125,-0.4636993408203125,0.537689208984375
1737749429484097800,6.259097900390625,-0.7414093017578125,-0.4716949462890625,0.5301971435546875
1737749429494165000,6.2691650390625,-0.72967529296875,-0.4616241455078125,0.506561279296875
1737749429504232000,6.27923193359375,-0.727508544921875,-0.4236297607421875,0.4711151123046875
1737749429514299000,6.289298828125,-0.745452880859375,-0.3753509521484375,0.4412994384765625
1737749429524364800,6.29936474609375,-0.7757415771484375,-0.3376617431640625,0.418975830078125
1737749429534432000,6.309431884765625,-0.7982635498046875,-0.2977294921875,0.3890533447265625
1737749429544499000,6.3194990234375,-0.803924560546875,-0.2598724365234375,0.3564605712890625
1737749429554566000,6.32956591796875,-0.8119964599609375,-0.248321533203125,0.331298828125
1737749429564632800,6.3396328125,-0.83380126953125,-0.2644195556640625,0.3266143798828125
1737749429574699800,6.34969970703125,-0.867401123046875,-0.2925262451171875,0.3478851318359375
1737749429584766000,6.359765869140625,-0.904388427734375,-0.3292694091796875,0.3849029541015625
1737749429594833000,6.3698330078125,-0.9488677978515625,-0.394775390625,0.4166717529296875
1737749429604899800,6.37989990234375,-0.979248046875,-0.4917144775390625,0.4287261962890625
1737749429614966800,6.389966796875,-0.9852447509765625,-0.591064453125,0.432342529296875
1737749429625033700,6.40003369140625,-0.9768829345703125,-0.6760711669921875,0.426666259765625
1737749429635100000,6.410099853515625,-0.9635772705078125,-0.7294464111328125,0.4018707275390625
1737749429645166800,6.420166748046875,-0.95928955078125,-0.71881103515625,0.376220703125
1737749429655233800,6.43023388671875,-0.946502685546875,-0.6355743408203125,0.34869384765625
1737749429665300700,6.44030078125,-0.9233856201171875,-0.5067291259765625,0.3339996337890625
1737749429675368000,6.450367919921875,-0.91107177734375,-0.37451171875,0.332122802734375
1737749429685435000,6.460434814453125,-0.9001007080078125,-0.2652587890625,0.33551025390625
1737749429695500800,6.470500732421875,-0.8829193115234375,-0.193115234375,0.3390960693359375
1737749429705567700,6.480567626953125,-0.8543701171875,-0.1559600830078125,0.3354949951171875
1737749429715635000,6.490635009765625,-0.8335723876953125,-0.149078369140625,0.32000732421875
1737749429725702000,6.500701904296875,-0.8312835693359375,-0.1793365478515625,0.30877685546875
1737749429735768800,6.510768798828125,-0.8373260498046875,-0.2346038818359375,0.3006744384765625
1737749429745835800,6.520835693359375,-0.842803955078125,-0.2913818359375,0.2982330322265625
1737749429755901700,6.530901611328125,-0.853851318359375,-0.3215789794921875,0.307586669921875
1737749429765969000,6.540968994140625,-0.861572265625,-0.3172760009765625,0.316802978515625
1737749429776035800,6.551035888671875,-0.8582763671875,-0.29052734375,0.3222198486328125
1737749429786102800,6.561102783203125,-0.85028076171875,-0.245330810546875,0.322235107421875
1737749429796169700,6.571169677734375,-0.845489501953125,-0.178802490234375,0.3273468017578125
1737749429806236000,6.58123583984375,-0.8416290283203125,-0.1009521484375,0.3440399169921875
1737749429816302800,6.591302734375,-0.8264923095703125,-0.035919189453125,0.3668212890625
1737749429826369800,6.601369873046875,-0.8136444091796875,0.0023956298828125,0.3812255859375
1737749429836436700,6.611436767578125,-0.80792236328125,0.01202392578125,0.381103515625
1737749429846503700,6.621503662109375,-0.8021392822265625,0.006256103515625,0.3883209228515625
1737749429856570600,6.631570556640625,-0.788909912109375,-0.0091400146484375,0.4173736572265625
1737749429866636800,6.64163671875,-0.78021240234375,-0.027923583984375,0.452392578125
1737749429876703700,6.651703857421875,-0.7899017333984375,-0.0330963134765625,0.4694976806640625
1737749429886770700,6.661770751953125,-0.791778564453125,-0.027740478515625,0.4877471923828125
1737749429896837600,6.671837646484375,-0.7874755859375,-0.033477783203125,0.510406494140625
1737749429906904800,6.68190478515625,-0.7928924560546875,-0.0576934814453125,0.5225677490234375
1737749429916972000,6.691971923828125,-0.813629150390625,-0.0830078125,0.52362060546875
1737749429927037700,6.70203759765625,-0.8420257568359375,-0.09686279296875,0.512542724609375
1737749429937105000,6.71210498046875,-0.8607025146484375,-0.0951385498046875,0.486328125
1737749429947171800,6.722171875,-0.872100830078125,-0.0943756103515625,0.448516845703125
1737749429957239000,6.732239013671875,-0.881805419921875,-0.1282196044921875,0.4007110595703125
1737749429967306000,6.742305908203125,-0.89892578125,-0.1908721923828125,0.36279296875
1737749429977372000,6.752371826171875,-0.9066314697265625,-0.26055908203125,0.3459930419921875
1737749429987438800,6.76243896484375,-0.9032440185546875,-0.324737548828125,0.3372802734375
1737749429997505800,6.772505859375,-0.905914306640625,-0.371612548828125,0.3188323974609375
1737749430007573000,6.782572998046875,-0.9151763916015625,-0.3882904052734375,0.2900543212890625
1737749430017640000,6.792639892578125,-0.9175567626953125,-0.3721923828125,0.273773193359375
1737749430027707000,6.802706787109375,-0.92156982421875,-0.3577423095703125,0.263824462890625
1737749430037772800,6.812772705078125,-0.9250640869140625,-0.3807373046875,0.2346649169921875
1737749430047840000,6.822840087890625,-0.950836181640625,-0.4433441162109375,0.178924560546875
1737749430057907000,6.832906982421875,-0.9763336181640625,-0.5164794921875,0.123748779296875
1737749430067974000,6.842973876953125,-0.9687957763671875,-0.5698394775390625,0.102508544921875
1737749430078040800,6.853040771484375,-0.9512176513671875,-0.58917236328125,0.0951690673828125
1737749430088107800,6.863107666015625,-0.9490966796875,-0.5845184326171875,0.06622314453125
1737749430098174000,6.873174072265625,-0.9517822265625,-0.560028076171875,0.02191162109375
1737749430108241000,6.883240966796875,-0.95404052734375,-0.5270538330078125,-0.013916015625
1737749430118307800,6.893307861328125,-0.961517333984375,-0.50518798828125,-0.047027587890625
1737749430128374800,6.903374755859375,-0.973358154296875,-0.48834228515625,-0.08050537109375
1737749430138441700,6.913441650390625,-0.980682373046875,-0.486480712890625,-0.1031341552734375
1737749430148508700,6.9235087890625,-0.971527099609375,-0.5045318603515625,-0.116912841796875
1737749430158574800,6.933574951171875,-0.9601287841796875,-0.54150390625,-0.126739501953125
1737749430168641800,6.943641845703125,-0.95745849609375,-0.583953857421875,-0.132659912109375
1737749430178708700,6.953708740234375,-0.9573211669921875,-0.6209564208984375,-0.130157470703125
1737749430188775700,6.963775634765625,-0.9560394287109375,-0.6364593505859375,-0.1217498779296875
1737749430198843000,6.9738427734375,-0.9519805908203125,-0.634124755859375,-0.1107177734375
1737749430208908800,6.98390869140625,-0.9380645751953125,-0.6207427978515625,-0.110076904296875
1737749430218975700,6.993975830078125,-0.9165802001953125,-0.59344482421875,-0.11627197265625
1737749430229042700,7.004042724609375,-0.8989105224609375,-0.560394287109375,-0.1119842529296875
1737749430239109600,7.014109619140625,-0.8929290771484375,-0.536468505859375,-0.1024169921875
1737749430249176800,7.0241767578125,-0.8956451416015625,-0.5179901123046875,-0.087310791015625
1737749430259243800,7.034243896484375,-0.8987579345703125,-0.503875732421875,-0.0670318603515625
1737749430269309700,7.044309814453125,-0.897064208984375,-0.4931488037109375,-0.0542449951171875
1737749430279376600,7.054376708984375,-0.88128662109375,-0.4832763671875,-0.0550537109375
1737749430289443800,7.06444384765625,-0.860992431640625,-0.4774322509765625,-0.06109619140625
1737749430299510800,7.0745107421875,-0.8438568115234375,-0.475067138671875,-0.073394775390625
1737749430309578000,7.084577880859375,-0.8330841064453125,-0.4839630126953125,-0.09381103515625
1737749430319645000,7.09464501953125,-0.8152618408203125,-0.4937744140625,-0.1202239990234375
1737749430329710800,7.1047109375,-0.80181884765625,-0.492034912109375,-0.136688232421875
1737749430339778000,7.114778076171875,-0.7899017333984375,-0.486907958984375,-0.139678955078125
1737749430349845000,7.124844970703125,-0.7673492431640625,-0.4970245361328125,-0.128692626953125
1737749430359912000,7.134911865234375,-0.7614593505859375,-0.5288848876953125,-0.1132049560546875
1737749430369979000,7.144978759765625,-0.801544189453125,-0.6013641357421875,-0.1019439697265625
1737749430380045000,7.155045166015625,-0.8325347900390625,-0.7515716552734375,-0.0932769775390625
1737749430390112000,7.165112060546875,-0.814361572265625,-0.948333740234375,-0.085693359375
1737749430400179000,7.175178955078125,-0.79736328125,-1.10137939453125,-0.0873870849609375
1737749430410246000,7.185245849609375,-0.8060150146484375,-1.140106201171875,-0.1150970458984375
1737749430420312800,7.195312744140625,-0.8157196044921875,-1.079010009765625,-0.1587677001953125
1737749430430379800,7.2053798828125,-0.808349609375,-0.976715087890625,-0.1970367431640625
1737749430440446000,7.215446044921875,-0.786773681640625,-0.8775482177734375,-0.2285308837890625
1737749430450510000,7.225510009765625,-0.766357421875,-0.8050079345703125,-0.2497406005859375
1737749430460577000,7.235576904296875,-0.75042724609375,-0.753814697265625,-0.24237060546875
1737749430470644200,7.245644287109375,-0.7190399169921875,-0.7204437255859375,-0.214385986328125
1737749430480711200,7.255711181640625,-0.67974853515625,-0.7079620361328125,-0.191436767578125
1737749430490777000,7.265777099609375,-0.651947021484375,-0.7233123779296875,-0.188568115234375
1737749430500844000,7.275843994140625,-0.6254119873046875,-0.7457275390625,-0.2007904052734375
1737749430510911200,7.2859111328125,-0.5937652587890625,-0.7439727783203125,-0.2067413330078125
1737749430520978200,7.295978271484375,-0.5634613037109375,-0.721710205078125,-0.196685791015625
1737749430531045000,7.306045166015625,-0.53192138671875,-0.6988067626953125,-0.1723175048828125
1737749430541112000,7.316112060546875,-0.523529052734375,-0.6880340576171875,-0.1361541748046875
1737749430551178200,7.32617822265625,-0.5169525146484375,-0.6942291259765625,-0.10552978515625
1737749430561245200,7.3362451171875,-0.521514892578125,-0.7191009521484375,-0.0852203369140625
1737749430571312000,7.34631201171875,-0.5323028564453125,-0.750823974609375,-0.072998046875
1737749430581379000,7.356379150390625,-0.5360565185546875,-0.780059814453125,-0.070556640625
1737749430591446300,7.3664462890625,-0.529510498046875,-0.8072357177734375,-0.0763702392578125
1737749430601513200,7.37651318359375,-0.532623291015625,-0.83428955078125,-0.0874481201171875
1737749430611579100,7.3865791015625,-0.537353515625,-0.8741607666015625,-0.1122589111328125
1737749430621646000,7.39664599609375,-0.5412750244140625,-0.9337310791015625,-0.1507720947265625
1737749430631713000,7.406713134765625,-0.54229736328125,-0.9779052734375,-0.196533203125
1737749430641780200,7.4167802734375,-0.5417633056640625,-0.97174072265625,-0.237152099609375
1737749430651847200,7.42684716796875,-0.5326995849609375,-0.91790771484375,-0.26519775390625
1737749430661913000,7.4369130859375,-0.5163116455078125,-0.84588623046875,-0.284088134765625
1737749430671980000,7.44697998046875,-0.5060272216796875,-0.7869110107421875,-0.30181884765625
1737749430682047200,7.457047119140625,-0.4915313720703125,-0.744293212890625,-0.3197784423828125
1737749430692114200,7.4671142578125,-0.4669952392578125,-0.71148681640625,-0.32708740234375
1737749430702181000,7.47718115234375,-0.443817138671875,-0.6901092529296875,-0.31903076171875
1737749430712248000,7.487248046875,-0.418182373046875,-0.6905670166015625,-0.30462646484375
1737749430722314200,7.497314208984375,-0.38323974609375,-0.7240142822265625,-0.29559326171875
1737749430732381200,7.507381103515625,-0.3581085205078125,-0.77020263671875,-0.290618896484375
1737749430742448000,7.5174482421875,-0.3459625244140625,-0.8126220703125,-0.2920074462890625
1737749430752515000,7.52751513671875,-0.3385772705078125,-0.8526458740234375,-0.2908782958984375
1737749430762582000,7.53758203125,-0.3350372314453125,-0.893096923828125,-0.284515380859375
1737749430772649000,7.54764892578125,-0.3422088623046875,-0.9199066162109375,-0.280059814453125
1737749430782715100,7.557715087890625,-0.35302734375,-0.9157257080078125,-0.27325439453125
1737749430792782000,7.567781982421875,-0.356781005859375,-0.8870697021484375,-0.268402099609375
1737749430802849000,7.57784912109375,-0.3597259521484375,-0.84771728515625,-0.271636962890625
1737749430812916000,7.587916015625,-0.3592071533203125,-0.8066253662109375,-0.28790283203125
1737749430822983000,7.59798291015625,-0.35272216796875,-0.76776123046875,-0.309173583984375
1737749430833049000,7.608049072265625,-0.34307861328125,-0.731964111328125,-0.3360443115234375
1737749430843116000,7.618115966796875,-0.3334503173828125,-0.702850341796875,-0.3594512939453125
1737749430853183000,7.628182861328125,-0.3177032470703125,-0.6913299560546875,-0.3735504150390625
1737749430863250000,7.63825,-0.298614501953125,-0.6988525390625,-0.38232421875
1737749430873317000,7.648317138671875,-0.2672882080078125,-0.7224273681640625,-0.3813934326171875
1737749430883384300,7.65838427734375,-0.2276763916015625,-0.7668914794921875,-0.3813323974609375
1737749430893450000,7.668449951171875,-0.1862030029296875,-0.847930908203125,-0.391571044921875
1737749430903517000,7.678516845703125,-0.14105224609375,-0.9887847900390625,-0.412109375
1737749430913584000,7.688584228515625,-0.1040802001953125,-1.1681365966796875,-0.446868896484375
1737749430923651300,7.6986513671875,-0.0754547119140625,-1.323516845703125,-0.489471435546875
1737749430933718300,7.70871826171875,-0.0628204345703125,-1.3812713623046875,-0.5128326416015625
1737749430943785200,7.71878515625,-0.1227569580078125,-1.3131561279296875,-0.5012664794921875
1737749430953851100,7.72885107421875,-0.1233367919921875,-1.1477203369140625,-0.4832916259765625
1737749430963918300,7.73891845703125,-0.1674346923828125,-0.9568023681640625,-0.4616241455078125
1737749430973985300,7.7489853515625,-0.275146484375,-0.8280029296875,-0.4329833984375
1737749430984052200,7.75905224609375,-0.3506011962890625,-0.7756805419921875,-0.37664794921875
1737749430994119200,7.769119140625,-0.2791595458984375,-0.7210845947265625,-0.3121490478515625
1737749431004185000,7.77918505859375,-0.2428741455078125,-0.617919921875,-0.3059844970703125
1737749431014252300,7.789252197265625,-0.2564697265625,-0.5352020263671875,-0.3716583251953125
1737749431024319200,7.7993193359375,-0.2493133544921875,-0.5044708251953125,-0.433349609375
1737749431034386200,7.80938623046875,-0.215057373046875,-0.508880615234375,-0.4355621337890625
1737749431044453000,7.819453125,-0.1600799560546875,-0.5368499755859375,-0.412322998046875
1737749431054520000,7.82952001953125,-0.1324920654296875,-0.603057861328125,-0.406646728515625
1737749431064586200,7.839586181640625,-0.1028289794921875,-0.7240447998046875,-0.4073638916015625
1737749431074653200,7.849653076171875,-0.069915771484375,-0.877410888671875,-0.3916168212890625
1737749431084720000,7.85972021484375,-0.1002197265625,-1.0331878662109375,-0.353240966796875
1737749431094787000,7.869787109375,-0.1361846923828125,-1.1775970458984375,-0.2938690185546875
1737749431104854000,7.87985400390625,-0.0824127197265625,-1.2662506103515625,-0.21209716796875
1737749431114921200,7.889921142578125,-0.079986572265625,-1.2663726806640625,-0.1474456787109375
1737749431124987100,7.899987060546875,-0.1448822021484375,-1.2207183837890625,-0.1431121826171875
1737749431135054000,7.91005419921875,-0.1729888916015625,-1.1725616455078125,-0.160308837890625
1737749431145121000,7.92012109375,-0.20440673828125,-1.1285400390625,-0.1487884521484375
1737749431155188000,7.93018798828125,-0.2234954833984375,-1.098388671875,-0.151092529296875
1737749431165255200,7.940255126953125,-0.25048828125,-1.1079864501953125,-0.213958740234375
1737749431175321000,7.950321044921875,-0.1943817138671875,-1.11090087890625,-0.287109375
1737749431185388000,7.960387939453125,-0.11114501953125,-1.051971435546875,-0.338623046875
1737749431195455000,7.970455078125,-0.0869598388671875,-0.972137451171875,-0.3719482421875
1737749431205522200,7.980522216796875,-0.1006622314453125,-0.9303741455078125,-0.4010467529296875
1737749431215589000,7.990589111328125,-0.1539764404296875,-0.939300537109375,-0.4107666015625
1737749431225656000,8.000656005859375,-0.1746826171875,-0.9714202880859375,-0.4041900634765625
1737749431235722000,8.010721923828125,-0.1719512939453125,-0.9700164794921875,-0.401458740234375
1737749431245789000,8.020788818359375,-0.1619110107421875,-0.9310302734375,-0.4197845458984375
1737749431255856000,8.030856201171876,-0.1580047607421875,-0.9003448486328125,-0.490142822265625
1737749431265923000,8.040923095703125,-0.1842498779296875,-0.9031982421875,-0.608428955078125
1737749431275990000,8.050989990234376,-0.1164093017578125,-0.922515869140625,-0.69708251953125
1737749431286057200,8.06105712890625,-0.0344085693359375,-0.9227447509765625,-0.736114501953125
1737749431296123100,8.071123046875,0.04486083984375,-0.916595458984375,-0.7179718017578125
1737749431306190000,8.081190185546875,-0.034942626953125,-0.90960693359375,-0.634368896484375
1737749431316257300,8.09125732421875,-0.0713653564453125,-0.9770050048828125,-0.4246368408203125
1737749431326324200,8.10132421875,-0.2238922119140625,-1.0496978759765625,-0.2115631103515625
1737749431336391200,8.11139111328125,-0.3717193603515625,-1.0697479248046875,-0.1005859375
1737749431346457000,8.12145703125,-0.36444091796875,-1.0092010498046875,-0.058013916015625
1737749431356524300,8.131524169921875,-0.3438873291015625,-0.945648193359375,-0.06170654296875
1737749431366591200,8.14159130859375,-0.3412322998046875,-0.88055419921875,-0.152435302734375
1737749431376658200,8.151658203125,-0.3060455322265625,-0.790069580078125,-0.2945098876953125
1737749431386725000,8.16172509765625,-0.115203857421875,-0.7138824462890625,-0.3973388671875
1737749431396792000,8.1717919921875,0.1309967041015625,-0.65252685546875,-0.516021728515625
1737749431406858200,8.181858154296876,0.21441650390625,-0.6272735595703125,-0.6765289306640625
1737749431416925200,8.19192529296875,0.2654876708984375,-0.7066497802734375,-0.6956024169921875
1737749431426992000,8.2019921875,0.087615966796875,-0.9225311279296875,-0.55010986328125
1737749431437059000,8.21205908203125,-0.1176300048828125,-1.13885498046875,-0.4167633056640625
1737749431447125500,8.22212548828125,-0.2557220458984375,-1.1496124267578125,-0.3688507080078125
1737749431457192400,8.2321923828125,-0.301849365234375,-0.9808197021484375,-0.3909912109375
1737749431467258400,8.24225830078125,-0.2725677490234375,-0.796661376953125,-0.43060302734375
1737749431477325300,8.2523251953125,-0.2063140869140625,-0.7199554443359375,-0.461761474609375
1737749431487392500,8.262392578125,-0.13092041015625,-0.746307373046875,-0.45440673828125
1737749431497459500,8.27245947265625,-0.097198486328125,-0.81732177734375,-0.425506591796875
1737749431507526400,8.2825263671875,-0.0541839599609375,-0.86767578125,-0.4169158935546875
1737749431517592300,8.29259228515625,-0.0601806640625,-0.846710205078125,-0.437347412109375
1737749431527659500,8.302659423828125,-0.06878662109375,-0.7794189453125,-0.482513427734375
1737749431537726500,8.3127265625,-0.0564727783203125,-0.733734130859375,-0.5193634033203125
1737749431547793400,8.32279345703125,-0.05010986328125,-0.7451324462890625,-0.525390625
1737749431557860400,8.3328603515625,-0.0439605712890625,-0.7975616455078125,-0.5202484130859375
1737749431567927300,8.34292724609375,-0.040496826171875,-0.8573455810546875,-0.5164031982421875
1737749431577993500,8.352993408203124,-0.0156707763671875,-0.8760528564453125,-0.52471923828125
1737749431588060400,8.363060302734375,-0.0362396240234375,-0.851715087890625,-0.5515289306640625
1737749431598127400,8.37312744140625,-0.0080718994140625,-0.8223419189453125,-0.59283447265625
1737749431608194300,8.3831943359375,0.0571746826171875,-0.7972564697265625,-0.6017913818359375
1737749431618261200,8.39326123046875,0.05328369140625,-0.7925567626953125,-0.566986083984375
1737749431628328400,8.403328369140626,-0.009796142578125,-0.8439483642578125,-0.526336669921875
1737749431638394400,8.413394287109375,-0.0573272705078125,-0.943023681640625,-0.4888458251953125
1737749431648461300,8.42346142578125,-0.0795745849609375,-1.0147857666015625,-0.4554290771484375
1737749431658528300,8.4335283203125,-0.0885772705078125,-1.005096435546875,-0.452880859375
1737749431668595200,8.44359521484375,-0.09222412109375,-0.9522552490234375,-0.4915924072265625
1737749431678662400,8.453662353515625,-0.075714111328125,-0.900787353515625,-0.56072998046875
1737749431688728300,8.463728271484374,-0.0223846435546875,-0.8558197021484375,-0.623382568359375
1737749431698795300,8.473795166015625,0.0283660888671875,-0.81610107421875,-0.64569091796875
1737749431708862200,8.4838623046875,0.061614990234375,-0.8057861328125,-0.648162841796875
1737749431718929400,8.493929443359375,0.0943756103515625,-0.8095245361328125,-0.65625
1737749431728996400,8.503996337890625,0.1161651611328125,-0.7924652099609375,-0.6697845458984375
1737749431739063300,8.514063232421876,0.11474609375,-0.7604827880859375,-0.68701171875
1737749431749129200,8.524129150390625,0.1026763916015625,-0.744598388671875,-0.695587158203125
1737749431759196200,8.534196044921876,0.12579345703125,-0.7428131103515625,-0.6918487548828125
1737749431769263400,8.544263427734375,0.1493072509765625,-0.72747802734375,-0.6898956298828125
1737749431779330300,8.554330322265624,0.13720703125,-0.7138214111328125,-0.7021026611328125
1737749431789397500,8.5643974609375,0.121002197265625,-0.7290802001953125,-0.707672119140625
1737749431799463200,8.574463134765624,0.126678466796875,-0.762115478515625,-0.682952880859375
1737749431809530400,8.5845302734375,0.136016845703125,-0.7862396240234375,-0.6385650634765625
1737749431819597600,8.59459765625,0.125701904296875,-0.796600341796875,-0.6048126220703125
1737749431829664500,8.60466455078125,0.103363037109375,-0.80511474609375,-0.5904693603515625
1737749431839731500,8.6147314453125,0.0882110595703125,-0.808502197265625,-0.590087890625
1737749431849798400,8.62479833984375,0.0958099365234375,-0.7962493896484375,-0.5859527587890625
1737749431859864600,8.634864501953125,0.099822998046875,-0.7837066650390625,-0.577972412109375
1737749431869931500,8.644931640625,0.108489990234375,-0.7910003662109375,-0.5887603759765625
1737749431879998500,8.65499853515625,0.131317138671875,-0.795806884765625,-0.6048583984375
1737749431890065400,8.6650654296875,0.16546630859375,-0.7781524658203125,-0.605072021484375
1737749431900132400,8.67513232421875,0.1845855712890625,-0.755584716796875,-0.6063385009765625
1737749431910199300,8.68519921875,0.18646240234375,-0.7516326904296875,-0.627593994140625
1737749431920265500,8.695265380859375,0.1726837158203125,-0.7563018798828125,-0.6492156982421875
1737749431930332400,8.70533251953125,0.16497802734375,-0.75909423828125,-0.6541900634765625
1737749431940399400,8.7153994140625,0.1461181640625,-0.7490997314453125,-0.638916015625
1737749431950466300,8.72546630859375,0.1256103515625,-0.7343597412109375,-0.61920166015625
1737749431960533500,8.735533447265626,0.1017303466796875,-0.7269287109375,-0.612518310546875
1737749431970599400,8.745599365234375,0.095367431640625,-0.728729248046875,-0.615814208984375
1737749431980666400,8.755666259765626,0.1151275634765625,-0.7162017822265625,-0.6055145263671875
1737749431990733300,8.7657333984375,0.126708984375,-0.7055816650390625,-0.5833587646484375
1737749432000800300,8.77580029296875,0.17083740234375,-0.705841064453125,-0.5765838623046875
1737749432010867500,8.785867431640625,0.21405029296875,-0.6900787353515625,-0.591033935546875
1737749432020934400,8.795934326171874,0.183197021484375,-0.6554718017578125,-0.621734619140625
1737749432031000300,8.806000244140625,0.152984619140625,-0.6489410400390625,-0.6602630615234375
1737749432041067300,8.8160673828125,0.2194976806640625,-0.66595458984375,-0.6708831787109375
1737749432051134500,8.826134521484375,0.302734375,-0.6665191650390625,-0.6287689208984375
1737749432061201400,8.836201416015625,0.336456298828125,-0.654022216796875,-0.59130859375
1737749432071268400,8.846268310546876,0.3365478515625,-0.6490631103515625,-0.6015625
1737749432081334300,8.856334228515625,0.30145263671875,-0.6526947021484375,-0.6356201171875
1737749432091401200,8.866401123046876,0.1589508056640625,-0.67156982421875,-0.686767578125
1737749432101468400,8.876468505859375,0.1185455322265625,-0.71502685546875,-0.7554931640625
1737749432111535400,8.886535400390626,0.1327056884765625,-0.7342376708984375,-0.75677490234375
1737749432121602300,8.896602294921875,0.1631317138671875,-0.69775390625,-0.6842803955078125
1737749432131669200,8.906669189453124,0.2101593017578125,-0.6608734130859375,-0.6200714111328125
1737749432141735400,8.9167353515625,0.2257080078125,-0.658966064453125,-0.6332244873046875
1737749432151802400,8.92680224609375,0.2486419677734375,-0.66595458984375,-0.72259521484375
1737749432161869300,8.936869384765625,0.2782135009765625,-0.637054443359375,-0.81707763671875
1737749432171936300,8.946936279296875,0.3094024658203125,-0.5827789306640625,-0.8471527099609375
1737749432182003200,8.957003173828125,0.32147216796875,-0.5606842041015625,-0.798309326171875
1737749432192069400,8.9670693359375,0.38299560546875,-0.60406494140625,-0.7175445556640625
1737749432202136300,8.97713623046875,0.4429168701171875,-0.6662445068359375,-0.6512908935546875
1737749432212203300,8.987203369140625,0.4318389892578125,-0.6803741455078125,-0.6038818359375
1737749432222270500,8.9972705078125,0.4140625,-0.65753173828125,-0.563995361328125
1737749432232337400,9.00733740234375,0.3947601318359375,-0.6323394775390625,-0.5220794677734375
1737749432242404400,9.017404296875,0.3151397705078125,-0.621490478515625,-0.485260009765625
1737749432252470300,9.02747021484375,0.2184600830078125,-0.6278533935546875,-0.477264404296875
1737749432262537500,9.037537353515624,0.17071533203125,-0.649993896484375,-0.4887847900390625
1737749432272604400,9.0476044921875,0.144866943359375,-0.6694183349609375,-0.4981842041015625
1737749432282671400,9.05767138671875,0.128997802734375,-0.6865997314453125,-0.5163421630859375
1737749432292738600,9.067738525390626,0.1410064697265625,-0.7009735107421875,-0.55889892578125
1737749432302805500,9.077805419921875,0.1720123291015625,-0.6914520263671875,-0.6178131103515625
1737749432312871400,9.087871337890626,0.2387237548828125,-0.662384033203125,-0.685028076171875
1737749432322938400,9.0979384765625,0.3295440673828125,-0.634063720703125,-0.7550201416015625
1737749432333005300,9.10800537109375,0.3741607666015625,-0.6155548095703125,-0.8041839599609375
1737749432343072500,9.118072509765625,0.378875732421875,-0.6121826171875,-0.8241729736328125
1737749432353139500,9.128139404296874,0.3780364990234375,-0.6266937255859375,-0.8193359375
1737749432363205400,9.138205322265625,0.4001617431640625,-0.643829345703125,-0.79132080078125
1737749432373272300,9.148272216796874,0.4909515380859375,-0.6362152099609375,-0.7583160400390625
1737749432383339500,9.158339599609375,0.528076171875,-0.6092071533203125,-0.7350311279296875
1737749432393406500,9.168406494140624,0.45733642578125,-0.6150665283203125,-0.714874267578125
1737749432403473400,9.178473388671875,0.382049560546875,-0.67486572265625,-0.684295654296875
1737749432413540400,9.188540283203125,0.2849884033203125,-0.7358856201171875,-0.6132354736328125
1737749432423606300,9.198606201171875,0.197021484375,-0.7643280029296875,-0.51318359375
1737749432433673500,9.208673583984375,0.135772705078125,-0.75787353515625,-0.430084228515625
1737749432443740400,9.218740478515626,0.11492919921875,-0.736236572265625,-0.378692626953125
1737749432453807000,9.22880712890625,0.0872039794921875,-0.737548828125,-0.3584136962890625
1737749432463874000,9.2388740234375,0.0692138671875,-0.77081298828125,-0.3642730712890625
1737749432473940200,9.248940185546875,0.093170166015625,-0.81097412109375,-0.3981781005859375
1737749432484007200,9.259007080078124,0.1258697509765625,-0.82977294921875,-0.440887451171875
1737749432494074000,9.26907421875,0.1639404296875,-0.828338623046875,-0.492340087890625
1737749432504141000,9.27914111328125,0.183258056640625,-0.8153533935546875,-0.5580902099609375
1737749432514208000,9.2892080078125,0.199310302734375,-0.7927093505859375,-0.6245269775390625
1737749432524275000,9.29927490234375,0.2316436767578125,-0.7647552490234375,-0.6568603515625
1737749432534341000,9.309341064453125,0.25628662109375,-0.750640869140625,-0.65087890625
1737749432544408000,9.319407958984375,0.2930908203125,-0.7545623779296875,-0.639617919921875
1737749432554475000,9.32947509765625,0.295928955078125,-0.7636566162109375,-0.65472412109375
1737749432564542000,9.3395419921875,0.25946044921875,-0.769775390625,-0.7016448974609375
1737749432574609200,9.349609130859376,0.2449493408203125,-0.75738525390625,-0.7452239990234375
1737749432584675000,9.359675048828125,0.29388427734375,-0.716644287109375,-0.7514190673828125
1737749432594742000,9.369741943359376,0.360107421875,-0.671539306640625,-0.729583740234375
1737749432604809000,9.37980908203125,0.41986083984375,-0.658111572265625,-0.715728759765625
1737749432614876000,9.3898759765625,0.4440460205078125,-0.674041748046875,-0.7511749267578125
1737749432624943000,9.399943115234375,0.4430694580078125,-0.714752197265625,-0.790130615234375
1737749432635009000,9.410009033203124,0.464599609375,-0.7806396484375,-0.778961181640625
1737749432645076000,9.420075927734375,0.429840087890625,-0.8482208251953125,-0.7225799560546875
1737749432655143000,9.430142822265625,0.3368682861328125,-0.8968048095703125,-0.679046630859375
1737749432665210000,9.440210205078126,0.24127197265625,-0.9157257080078125,-0.6556854248046875
1737749432675277000,9.450277099609375,0.184234619140625,-0.9035186767578125,-0.6307373046875
1737749432685344000,9.460343994140626,0.2176361083984375,-0.85272216796875,-0.625518798828125
1737749432695410000,9.470409912109375,0.3088226318359375,-0.764556884765625,-0.644500732421875
1737749432705477000,9.48047705078125,0.384979248046875,-0.6846466064453125,-0.662689208984375
1737749432715544000,9.4905439453125,0.4350738525390625,-0.6585540771484375,-0.707489013671875
1737749432725611000,9.500611083984374,0.4647216796875,-0.68389892578125,-0.7513427734375
1737749432735678200,9.51067822265625,0.4503631591796875,-0.740570068359375,-0.756591796875
1737749432745744000,9.520743896484374,0.425384521484375,-0.7972564697265625,-0.7380523681640625
1737749432755811000,9.53081103515625,0.40936279296875,-0.8136138916015625,-0.709686279296875
1737749432765878000,9.5408779296875,0.365203857421875,-0.786865234375,-0.6649627685546875
1737749432775945200,9.5509453125,0.30877685546875,-0.7505340576171875,-0.6121368408203125
1737749432786012200,9.56101220703125,0.27587890625,-0.71978759765625,-0.5649566650390625
1737749432796079000,9.5710791015625,0.2516632080078125,-0.696746826171875,-0.50665283203125
1737749432806145300,9.581145263671875,0.25054931640625,-0.6776123046875,-0.4655609130859375
1737749432816212200,9.591212158203126,0.2895965576171875,-0.65289306640625,-0.4632720947265625
1737749432826279200,9.601279052734375,0.3057708740234375,-0.642730712890625,-0.483154296875
1737749432836346000,9.61134619140625,0.3806610107421875,-0.636505126953125,-0.5693206787109375
1737749432846413000,9.6214130859375,0.3809051513671875,-0.6322174072265625,-0.6447601318359375
1737749432856479200,9.631479248046874,0.3104248046875,-0.67181396484375,-0.66510009765625
1737749432866546200,9.641546142578125,0.2679901123046875,-0.718475341796875,-0.6541748046875
1737749432876613000,9.651613037109374,0.23748779296875,-0.76153564453125,-0.6505126953125
1737749432886680000,9.66168017578125,0.2143707275390625,-0.8070220947265625,-0.6727142333984375
1737749432896747000,9.6717470703125,0.19921875,-0.8101959228515625,-0.67742919921875
1737749432906814200,9.681814208984376,0.146881103515625,-0.7930755615234375,-0.67767333984375
1737749432916880100,9.691880126953125,0.0873565673828125,-0.77508544921875,-0.6836395263671875
1737749432926947000,9.701947021484376,0.0966339111328125,-0.7369232177734375,-0.676055908203125
1737749432937014000,9.712013916015625,0.0925750732421875,-0.69256591796875,-0.65582275390625
1737749432947081200,9.722081298828124,0.160308837890625,-0.6510772705078125,-0.6576690673828125
1737749432957148200,9.732148193359375,0.2209625244140625,-0.6406402587890625,-0.6605987548828125
1737749432967214000,9.742214111328124,0.2383575439453125,-0.6655731201171875,-0.662384033203125
1737749432977281000,9.752281005859375,0.231109619140625,-0.7057952880859375,-0.649749755859375
1737749432987348000,9.762347900390624,0.2501068115234375,-0.7262725830078125,-0.614532470703125
1737749432997415200,9.772415283203125,0.265655517578125,-0.707672119140625,-0.549530029296875
1737749433007482000,9.782482177734375,0.2548065185546875,-0.665985107421875,-0.4699249267578125
1737749433017548000,9.792548095703125,0.2592010498046875,-0.6234588623046875,-0.4078826904296875
1737749433027615000,9.802614990234375,0.2548828125,-0.604522705078125,-0.36700439453125
1737749433037682200,9.81268212890625,0.239410400390625,-0.628570556640625,-0.3630218505859375
1737749433047749000,9.8227490234375,0.200836181640625,-0.69189453125,-0.393524169921875
1737749433057816000,9.832816162109374,0.192138671875,-0.757049560546875,-0.435272216796875
1737749433067883000,9.842883056640625,0.192291259765625,-0.791656494140625,-0.46588134765625
1737749433077949000,9.852948974609374,0.2118988037109375,-0.7955474853515625,-0.501434326171875
1737749433088016100,9.86301611328125,0.24688720703125,-0.7800140380859375,-0.56207275390625
1737749433098083000,9.8730830078125,0.287933349609375,-0.7458953857421875,-0.6450653076171875
1737749433108150000,9.88314990234375,0.3049774169921875,-0.7087554931640625,-0.7467498779296875
1737749433118217000,9.893217041015625,0.2765655517578125,-0.6875457763671875,-0.8350830078125
1737749433128283100,9.903283203125,0.2884521484375,-0.670684814453125,-0.8731536865234375
1737749433138350000,9.91335009765625,0.275634765625,-0.68133544921875,-0.9008636474609375
1737749433148417000,9.9234169921875,0.241363525390625,-0.7192535400390625,-0.9066009521484375
1737749433158484000,9.93348388671875,0.228118896484375,-0.76416015625,-0.8481292724609375
1737749433168551000,9.943551025390626,0.242095947265625,-0.787994384765625,-0.7680511474609375
1737749433178618000,9.9536181640625,0.1927490234375,-0.785430908203125,-0.701812744140625
1737749433188684000,9.96368408203125,0.128570556640625,-0.7831268310546875,-0.6587371826171875
1737749433198751000,9.9737509765625,0.0973052978515625,-0.8121185302734375,-0.61328125
1737749433208818200,9.983818115234374,0.1095123291015625,-0.8763427734375,-0.534698486328125
1737749433218885000,9.993885009765625,0.0825042724609375,-0.94500732421875,-0.4542083740234375
1737749433228952000,10.0039521484375,0.000518798828125,-0.988372802734375,-0.3726806640625
1737749433239018000,10.01401806640625,-0.0285491943359375,-0.99456787109375,-0.271697998046875
1737749433249085200,10.024085205078125,0.02252197265625,-0.976959228515625,-0.1728973388671875
1737749433259152100,10.034152099609376,0.053314208984375,-0.98284912109375,-0.1644287109375
1737749433269219000,10.044218994140625,0.0526123046875,-1.0322113037109375,-0.229034423828125
1737749433279286300,10.054286376953126,0.0543060302734375,-1.0692901611328125,-0.2558746337890625
1737749433289353200,10.064353271484375,0.022003173828125,-1.054443359375,-0.235015869140625
1737749433299419100,10.074419189453126,0.011749267578125,-0.983306884765625,-0.2530364990234375
1737749433309486000,10.084486083984375,0.0905914306640625,-0.9264984130859375,-0.3530731201171875
1737749433319553000,10.094552978515624,0.1522369384765625,-0.980255126953125,-0.4962921142578125
1737749433329620200,10.1046201171875,0.1822967529296875,-1.1162567138671875,-0.640777587890625
1737749433339687200,10.114687255859375,0.135162353515625,-1.1581268310546875,-0.7228851318359375
1737749433349753000,10.124753173828125,0.0800018310546875,-1.05108642578125,-0.7092437744140625
1737749433359820000,10.134820068359375,0.016510009765625,-0.941650390625,-0.6228790283203125
1737749433369887200,10.14488720703125,0.0106658935546875,-0.920135498046875,-0.4843597412109375
1737749433379954200,10.1549541015625,0.0840606689453125,-0.9444427490234375,-0.353240966796875
1737749433390021000,10.165021240234376,0.20050048828125,-0.95404052734375,-0.231903076171875
1737749433400088000,10.175088134765625,0.29632568359375,-0.94134521484375,-0.1335906982421875
1737749433410154000,10.185154052734376,0.2796478271484375,-0.92535400390625,-0.050384521484375
1737749433420221200,10.19522119140625,0.2258453369140625,-0.9093475341796875,-0.0239105224609375
1737749433430288100,10.2052880859375,0.23321533203125,-0.871368408203125,-0.0971527099609375
1737749433440355000,10.21535498046875,0.2182769775390625,-0.8910980224609375,-0.2898712158203125
1737749433450422500,10.225422607421875,0.225341796875,-0.9364776611328125,-0.4849853515625
1737749433460488400,10.235488525390625,0.3003692626953125,-0.9348297119140625,-0.58258056640625
1737749433470555600,10.2455556640625,0.39324951171875,-0.9145355224609375,-0.5604705810546875
1737749433480622600,10.25562255859375,0.4210205078125,-0.8887786865234375,-0.50714111328125
1737749433490689500,10.265689453125,0.3998870849609375,-0.867889404296875,-0.4664154052734375
1737749433500756500,10.275756591796876,0.3418731689453125,-0.8748779296875,-0.415557861328125
1737749433510823400,10.285823486328125,0.25335693359375,-0.905059814453125,-0.3499755859375
1737749433520889600,10.2958896484375,0.186248779296875,-0.9904937744140625,-0.2755126953125
1737749433530956500,10.30595654296875,0.077850341796875,-1.048126220703125,-0.26123046875
1737749433541023500,10.3160234375,-0.04815673828125,-1.046417236328125,-0.36138916015625
1737749433551090400,10.32609033203125,-0.05267333984375,-1.022216796875,-0.477569580078125
1737749433561157400,10.336157470703125,0.0281829833984375,-0.996246337890625,-0.4646759033203125
1737749433571224600,10.346224609375,0.120147705078125,-1.03570556640625,-0.3229217529296875
1737749433581290500,10.35629052734375,0.174346923828125,-1.0991973876953125,-0.2138214111328125
1737749433591357400,10.366357421875,0.1818695068359375,-1.0547332763671875,-0.1647491455078125
1737749433601424400,10.37642431640625,0.2389984130859375,-0.973052978515625,-0.115692138671875
1737749433611491300,10.3864912109375,0.274627685546875,-0.9525604248046875,-0.0544891357421875
1737749433621558500,10.39655859375,0.2249298095703125,-1.003021240234375,-0.02734375
1737749433631624400,10.40662451171875,0.22357177734375,-1.0740966796875,-0.07586669921875
1737749433641691400,10.41669140625,0.2076416015625,-1.0572509765625,-0.2110443115234375
1737749433651758300,10.42675830078125,0.209197998046875,-1.0448760986328125,-0.317962646484375
1737749433661825500,10.436825439453125,0.18695068359375,-1.1051788330078125,-0.39080810546875
1737749433671892500,10.446892578125,0.192291259765625,-1.096527099609375,-0.388946533203125
1737749433681959400,10.45695947265625,0.19610595703125,-1.065948486328125,-0.261383056640625
1737749433692025300,10.467025390625,0.1431427001953125,-1.0783538818359375,-0.1270751953125
1737749433702092300,10.47709228515625,0.0802459716796875,-1.1056060791015625,-0.06890869140625
1737749433712159500,10.487159423828125,0.1222686767578125,-1.1520233154296875,-0.0076751708984375
1737749433722226400,10.497226318359376,0.1314239501953125,-1.1910858154296875,0.0275115966796875
1737749433732293400,10.50729345703125,0.167083740234375,-1.194366455078125,-0.004241943359375
1737749433742359300,10.517359375,0.2548675537109375,-1.1290435791015625,-0.090362548828125
1737749433752426500,10.527426513671875,0.301483154296875,-1.0494384765625,-0.152130126953125
1737749433762493400,10.537493408203124,0.2497711181640625,-1.000823974609375,-0.114654541015625
1737749433772560400,10.547560302734375,0.16448974609375,-0.9801025390625,-0.0679931640625
1737749433782627300,10.55762744140625,0.11810302734375,-1.0163726806640625,-0.100250244140625
1737749433792694500,10.567694580078125,0.0951995849609375,-1.0070037841796875,-0.089080810546875
1737749433802760400,10.577760498046874,0.04052734375,-0.9236602783203125,-0.0886077880859375
1737749433812827400,10.587827392578125,0.116302490234375,-0.9477996826171875,-0.109893798828125
1737749433822894300,10.597894287109375,0.2429656982421875,-1.0442657470703125,0.0309295654296875
1737749433832961500,10.60796142578125,0.08660888671875,-1.0394287109375,0.183837890625
1737749433843028500,10.618028564453125,-0.0624237060546875,-0.9769439697265625,0.1135101318359375
1737749433853095400,10.628095458984374,-0.0852203369140625,-0.8981170654296875,-0.08038330078125
1737749433863161600,10.63816162109375,-0.1343994140625,-0.9409942626953125,-0.161041259765625
1737749433873228500,10.648228515625,-0.147216796875,-1.13189697265625,-0.1435546875
1737749433883295500,10.65829541015625,-0.021087646484375,-1.186981201171875,-0.173095703125
1737749433893362400,10.668362548828124,0.1015167236328125,-1.0792999267578125,-0.136260986328125
1737749433903429600,10.6784296875,0.10498046875,-1.039154052734375,-0.043609619140625
1737749433913496600,10.68849658203125,0.0145721435546875,-1.0832672119140625,0.042327880859375
1737749433923562500,10.6985625,-0.041656494140625,-1.1086578369140625,0.1065521240234375
1737749433933629400,10.70862939453125,-0.0363922119140625,-1.0732421875,0.1882476806640625
1737749433943696400,10.7186962890625,-0.0307159423828125,-1.0144195556640625,0.16644287109375
1737749433953763600,10.728763671875,0.0096893310546875,-1.025787353515625,0.1101226806640625
1737749433963830500,10.73883056640625,-0.0064544677734375,-1.0420379638671875,0.067901611328125
1737749433973896400,10.748896484375,-0.0606536865234375,-1.043487548828125,0.030914306640625
1737749433983963400,10.75896337890625,-0.0135498046875,-1.141693115234375,0.0878448486328125
1737749433994030600,10.769030517578125,-0.041748046875,-1.242034912109375,0.11785888671875
1737749434004097500,10.77909765625,-0.083770751953125,-1.1713104248046875,0.10382080078125
1737749434014164500,10.78916455078125,-0.0805816650390625,-1.02191162109375,0.179534912109375
1737749434024231400,10.7992314453125,-0.1407318115234375,-0.992156982421875,0.174896240234375
1737749434034297300,10.80929736328125,-0.165191650390625,-1.1186981201171875,0.10723876953125
1737749434044364500,10.819364501953125,-0.089141845703125,-1.226806640625,0.125579833984375
1737749434054431500,10.829431396484376,-0.10296630859375,-1.2302398681640625,0.15069580078125
1737749434064498400,10.83949853515625,-0.2139739990234375,-1.1657562255859375,0.072052001953125
1737749434074565400,10.8495654296875,-0.2154693603515625,-1.1077880859375,-0.033172607421875
1737749434084631600,10.859631591796875,-0.203155517578125,-1.1095428466796875,-0.0116119384765625
1737749434094698500,10.869698486328126,-0.2423248291015625,-1.0683135986328125,0.02325439453125
1737749434104765400,10.879765380859375,-0.2473297119140625,-0.9948883056640625,0.0079193115234375
1737749434114832400,10.889832275390624,-0.260711669921875,-0.982452392578125,-0.0440521240234375
1737749434124899300,10.8998994140625,-0.277252197265625,-1.0558319091796875,-0.0847320556640625
1737749434134966300,10.90996630859375,-0.2840728759765625,-1.143280029296875,-0.073333740234375
1737749434145032400,10.920032470703125,-0.264801025390625,-1.1316680908203125,0.0293121337890625
1737749434155099400,10.930099365234375,-0.2546844482421875,-1.00665283203125,0.0360565185546875
1737749434165166300,10.940166259765626,-0.2299957275390625,-0.907562255859375,-0.0296478271484375
1737749434175233300,10.9502333984375,-0.2206878662109375,-0.8975372314453125,-0.03680419921875
1737749434185300200,10.96030029296875,-0.287384033203125,-1.0069732666015625,-0.010528564453125
1737749434195367400,10.970367431640625,-0.295318603515625,-1.1437225341796875,0.050537109375
1737749434205433300,10.980433349609376,-0.2577362060546875,-1.125152587890625,0.1052703857421875
1737749434215500300,10.990500244140625,-0.22540283203125,-0.94342041015625,0.083282470703125
1737749434225567200,11.000567138671874,-0.1874847412109375,-0.764007568359375,0.0580291748046875
1737749434235634700,11.010634765625,-0.2022705078125,-0.678558349609375,-0.0006103515625
1737749434245701600,11.02070166015625,-0.2206878662109375,-0.6714630126953125,-0.0915679931640625
1737749434255768600,11.0307685546875,-0.1934051513671875,-0.710845947265625,-0.1745452880859375
1737749434265834500,11.04083447265625,-0.12628173828125,-0.70849609375,-0.2403411865234375
1737749434275901400,11.0509013671875,-0.1277008056640625,-0.730072021484375,-0.2687530517578125
1737749434285968600,11.06096875,-0.10357666015625,-0.8961029052734375,-0.23779296875
1737749434296035600,11.07103564453125,-0.0790863037109375,-1.027069091796875,-0.14990234375
1737749434306102500,11.0811025390625,-0.073486328125,-1.0471038818359375,-0.1074981689453125
1737749434316168400,11.09116845703125,-0.10211181640625,-1.0201416015625,-0.0717010498046875
1737749434326235600,11.101235595703125,-0.132080078125,-0.9340667724609375,-0.0454864501953125
1737749434336302600,11.111302490234374,-0.2261505126953125,-0.8388671875,-0.0563201904296875
1737749434346369500,11.12136962890625,-0.2577362060546875,-0.7451629638671875,-0.258026123046875
1737749434356436500,11.1314365234375,-0.3168792724609375,-0.67572021484375,-0.4864044189453125
1737749434366502400,11.14150244140625,-0.4341583251953125,-0.7138214111328125,-0.538818359375
1737749434376569600,11.151569580078124,-0.5318145751953125,-0.83782958984375,-0.4373931884765625
1737749434386636500,11.161636474609375,-0.484161376953125,-0.985107421875,-0.3253631591796875
1737749434396703500,11.171703369140625,-0.3117218017578125,-1.0496673583984375,-0.239898681640625
1737749434406770400,11.1817705078125,-0.1260528564453125,-0.9061126708984375,-0.2067413330078125
1737749434416837400,11.19183740234375,0.0340576171875,-0.656494140625,-0.2730712890625
1737749434426903600,11.201903564453126,0.07672119140625,-0.5111541748046875,-0.4698333740234375
1737749434436970500,11.211970458984375,0.0449371337890625,-0.5737762451171875,-0.7140045166015625
1737749434447037400,11.222037353515624,0.07080078125,-0.7133331298828125,-0.854888916015625
1737749434457104000,11.232103759765625,0.1820831298828125,-0.7537078857421875,-0.8063201904296875
1737749434467171000,11.242171142578124,0.267181396484375,-0.74072265625,-0.656463623046875
1737749434477237000,11.252237060546875,0.2844390869140625,-0.7884063720703125,-0.5592041015625
1737749434487304000,11.262303955078124,0.2729339599609375,-0.876678466796875,-0.4869384765625
1737749434497371000,11.272370849609375,0.2628936767578125,-0.9396209716796875,-0.417572021484375
1737749434507437800,11.282437744140625,0.2382659912109375,-0.9826812744140625,-0.3983917236328125
1737749434517505000,11.292505126953126,0.2260589599609375,-1.0049591064453125,-0.4091033935546875
1737749434527571000,11.302571044921875,0.2340240478515625,-0.9723358154296875,-0.4035797119140625
1737749434537638000,11.312637939453126,0.2403564453125,-0.9328155517578125,-0.3721160888671875
1737749434547704800,11.322704833984375,0.196136474609375,-0.9530487060546875,-0.3382110595703125
1737749434557772000,11.33277197265625,0.136993408203125,-1.0254669189453125,-0.300750732421875
1737749434567839000,11.3428388671875,0.114593505859375,-1.11322021484375,-0.2978515625
1737749434577906000,11.352906005859374,0.1524505615234375,-1.1876983642578125,-0.3610992431640625
1737749434587971800,11.362971923828125,0.2201995849609375,-1.2340545654296875,-0.4322052001953125
1737749434598038800,11.373038818359374,0.2198638916015625,-1.2960662841796875,-0.4830322265625
1737749434608106000,11.38310595703125,0.2086029052734375,-1.387176513671875,-0.4903411865234375
1737749434618173000,11.3931728515625,0.2448272705078125,-1.424285888671875,-0.47918701171875
1737749434628240000,11.403239990234376,0.268585205078125,-1.36370849609375,-0.495330810546875
1737749434638305800,11.413305908203125,0.351898193359375,-1.271728515625,-0.5688934326171875
1737749434648373000,11.423373046875,0.4603729248046875,-1.2336578369140625,-0.618133544921875
1737749434658440000,11.43343994140625,0.5605316162109375,-1.2804412841796875,-0.57537841796875
1737749434668507000,11.4435068359375,0.6189422607421875,-1.366363525390625,-0.4618377685546875
1737749434678573800,11.45357373046875,0.6069488525390625,-1.4391326904296875,-0.3016815185546875
1737749434688641000,11.46364111328125,0.5222320556640625,-1.462249755859375,-0.1245574951171875
1737749434698707000,11.47370703125,0.41290283203125,-1.435272216796875,-0.0343017578125
1737749434708774000,11.48377392578125,0.3902740478515625,-1.3583984375,0.0022430419921875
1737749434718840800,11.4938408203125,0.4241485595703125,-1.27294921875,0.0892791748046875
1737749434728908000,11.503907958984374,0.5049285888671875,-1.221099853515625,0.143768310546875
1737749434738975000,11.51397509765625,0.5329132080078125,-1.176605224609375,0.1318817138671875
1737749434749041000,11.524041015625,0.5249786376953125,-1.0828094482421875,0.0168609619140625
1737749434759108000,11.534108154296876,0.509429931640625,-0.9616241455078125,-0.072418212890625
1737749434769175000,11.544175048828125,0.4825592041015625,-0.8889007568359375,0.003326416015625
1737749434779242000,11.554241943359376,0.462890625,-0.9043121337890625,0.1949005126953125
1737749434789309000,11.564308837890625,0.38690185546875,-1.0016632080078125,0.315826416015625
1737749434799376100,11.574376220703124,0.23638916015625,-1.1149749755859375,0.31561279296875
1737749434809442000,11.584442138671875,0.1246337890625,-1.14569091796875,0.251861572265625
1737749434819509000,11.594509033203124,0.0878143310546875,-1.1092529296875,0.1987457275390625
1737749434829576000,11.604575927734375,0.037445068359375,-1.1154022216796875,0.1905670166015625
1737749434839643000,11.614642822265624,0.011871337890625,-1.15240478515625,0.1593017578125
1737749434849710000,11.6247099609375,-0.077362060546875,-1.1512603759765625,0.0934906005859375
1737749434859776000,11.63477587890625,-0.143463134765625,-1.1052093505859375,0.0307159423828125
1737749434869843000,11.644843017578125,-0.098541259765625,-1.0312652587890625,-0.02252197265625
1737749434879910000,11.654909912109375,-0.0434112548828125,-0.98388671875,-0.120391845703125
1737749434889977000,11.66497705078125,-0.1226654052734375,-0.9914398193359375,-0.2589569091796875
1737749434900044000,11.6750439453125,-0.258087158203125,-1.023895263671875,-0.3820953369140625
1737749434910110000,11.68510986328125,-0.3021087646484375,-1.026885986328125,-0.42169189453125
1737749434920177000,11.695177001953125,-0.234344482421875,-0.9756317138671875,-0.3619842529296875
1737749434930244000,11.705244140625,-0.208221435546875,-0.9334869384765625,-0.293304443359375
1737749434940311000,11.71531103515625,-0.29510498046875,-0.9492950439453125,-0.2754669189453125
1737749434950377000,11.725376953125,-0.349090576171875,-1.0243377685546875,-0.2957611083984375
1737749434960443100,11.735443115234375,-0.3235931396484375,-1.1049652099609375,-0.300628662109375
1737749434970510000,11.745510009765624,-0.3148345947265625,-1.131683349609375,-0.277252197265625
1737749434980577000,11.755576904296875,-0.294677734375,-1.087310791015625,-0.236419677734375
1737749434990644000,11.76564404296875,-0.2732086181640625,-1.0234375,-0.21807861328125
1737749435000711000,11.7757109375,-0.2859649658203125,-1.0085296630859375,-0.2260894775390625
1737749435010777900,11.78577783203125,-0.29779052734375,-1.0604248046875,-0.2633209228515625
1737749435020844000,11.795843994140625,-0.3745880126953125,-1.137359619140625,-0.28192138671875
1737749435030911000,11.805910888671875,-0.427764892578125,-1.2028350830078125,-0.2792205810546875
1737749435040978000,11.81597802734375,-0.4365997314453125,-1.20440673828125,-0.27752685546875
1737749435051044900,11.826044921875,-0.4398193359375,-1.157073974609375,-0.3061370849609375
1737749435061111800,11.83611181640625,-0.4213409423828125,-1.1038970947265625,-0.3716278076171875
1737749435071178000,11.846177978515625,-0.3768768310546875,-1.087677001953125,-0.455963134765625
1737749435081245000,11.856244873046874,-0.3246917724609375,-1.1107635498046875,-0.5253448486328125
1737749435091311900,11.866311767578125,-0.2826995849609375,-1.1202850341796875,-0.576385498046875
1737749435101378800,11.87637890625,-0.2545013427734375,-1.09161376953125,-0.587432861328125
1737749435111446000,11.886446044921875,-0.2234954833984375,-1.0833587646484375,-0.5900421142578125
1737749435121512000,11.896511962890624,-0.1934814453125,-1.0919189453125,-0.607666015625
1737749435131579000,11.906578857421875,-0.1652984619140625,-1.0920867919921875,-0.5811920166015625
1737749435141645800,11.916645751953125,-0.178680419921875,-1.0947418212890625,-0.5105133056640625
1737749435151712800,11.926712646484376,-0.234710693359375,-1.128509521484375,-0.4461822509765625
1737749435161780000,11.936780029296875,-0.2985687255859375,-1.20306396484375,-0.43402099609375
1737749435171847000,11.946846923828126,-0.2864990234375,-1.268218994140625,-0.435211181640625
1737749435181912800,11.956912841796875,-0.1326141357421875,-1.23321533203125,-0.47589111328125
1737749435191979800,11.966979736328126,0.105560302734375,-1.10675048828125,-0.5412139892578125
1737749435202047000,11.977046875,0.2963104248046875,-1.0195770263671875,-0.5628204345703125
1737749435212114000,11.987114013671874,0.3223724365234375,-1.014617919921875,-0.48895263671875
1737749435222180900,11.997180908203125,0.2557830810546875,-1.008544921875,-0.3560638427734375
1737749435232246800,12.007246826171874,0.191558837890625,-0.9420928955078125,-0.1769866943359375
1737749435242314000,12.01731396484375,0.1130523681640625,-0.9387359619140625,-0.04034423828125
1737749435252381000,12.027380859375,0.014739990234375,-1.1109771728515625,-0.0436248779296875
1737749435262448000,12.0374482421875,0.0272979736328125,-1.2891387939453125,-0.225799560546875
1737749435272515000,12.04751513671875,0.07373046875,-1.2777557373046875,-0.5038299560546875
1737749435282582000,12.05758203125,0.1167755126953125,-1.130340576171875,-0.7017059326171875
1737749435292648000,12.06764794921875,0.30841064453125,-1.005767822265625,-0.71826171875
1737749435302715100,12.077715087890626,0.5069732666015625,-0.8849334716796875,-0.6189422607421875
1737749435312782000,12.087781982421875,0.5670928955078125,-0.768310546875,-0.459381103515625
1737749435322849000,12.09784912109375,0.5272216796875,-0.70660400390625,-0.256622314453125
1737749435332916000,12.107916015625,0.3433685302734375,-0.73870849609375,-0.0711517333984375
1737749435342983000,12.11798291015625,0.1119232177734375,-0.942474365234375,0.0571136474609375
1737749435353049000,12.128049072265625,-0.015716552734375,-1.189483642578125,0.1090545654296875
1737749435363116000,12.138115966796875,-0.0489654541015625,-1.1985626220703125,-0.002166748046875
1737749435373183000,12.148182861328126,0.08734130859375,-1.0568084716796875,-0.267547607421875
1737749435383250000,12.15825,0.2324066162109375,-0.9344940185546875,-0.500335693359375
1737749435393316900,12.16831689453125,0.3213348388671875,-0.8831024169921875,-0.6342010498046875
1737749435403383000,12.178383056640625,0.341522216796875,-0.907379150390625,-0.628082275390625
1737749435413450000,12.188449951171876,0.276580810546875,-0.9656982421875,-0.4651031494140625
1737749435423517000,12.198516845703125,0.1156768798828125,-1.05487060546875,-0.2245025634765625
1737749435433583900,12.208583984375,-0.020172119140625,-1.1131591796875,-0.047393798828125
1737749435443651000,12.218651123046875,-0.069854736328125,-1.0807342529296875,0.000640869140625
1737749435453718000,12.228718017578124,-0.0628814697265625,-1.0610504150390625,-0.0543212890625
1737749435463787500,12.23878759765625,-0.041168212890625,-1.1197967529296875,-0.1038360595703125
1737749435473854500,12.2488544921875,-0.023681640625,-1.1658172607421875,-0.1509246826171875
1737749435483921400,12.25892138671875,0.005767822265625,-1.1539764404296875,-0.16461181640625
1737749435493988600,12.268988525390625,0.01446533203125,-1.1613616943359375,-0.14208984375
1737749435504055600,12.2790556640625,-0.024627685546875,-1.189208984375,-0.119415283203125
1737749435514122500,12.28912255859375,-0.1112060546875,-1.199249267578125,-0.0920257568359375
1737749435524188400,12.2991884765625,-0.1065216064453125,-1.19769287109375,-0.02862548828125
1737749435534255600,12.309255615234376,-0.0833740234375,-1.195037841796875,0.038330078125
1737749435544322600,12.319322509765625,-0.1342010498046875,-1.210906982421875,0.088134765625
1737749435554389500,12.329389404296874,-0.222869873046875,-1.25994873046875,0.066619873046875
1737749435564456400,12.33945654296875,-0.216400146484375,-1.2538909912109375,0.0487213134765625
1737749435574523600,12.349523681640624,-0.1484832763671875,-1.2023773193359375,0.1051788330078125
1737749435584590600,12.359590576171875,-0.1025848388671875,-1.181243896484375,0.15509033203125
1737749435594657500,12.369657470703125,-0.07061767578125,-1.1917724609375,0.1254119873046875
1737749435604724700,12.379724853515626,-0.008636474609375,-1.1914825439453125,0.0653533935546875
1737749435614791700,12.389791748046875,0.040771484375,-1.1744384765625,0.0722198486328125
1737749435624858600,12.399858642578126,-0.0019378662109375,-1.189178466796875,0.171112060546875
1737749435634925600,12.409925537109375,-0.0568084716796875,-1.2305145263671875,0.19873046875
1737749435644991700,12.41999169921875,-0.0061798095703125,-1.1938934326171875,0.078125
1737749435655058700,12.43005859375,0.1031494140625,-1.0924072265625,0.0002593994140625
1737749435665125600,12.440125732421874,0.108551025390625,-0.9931640625,0.118377685546875
1737749435675192600,12.450192626953125,0.026947021484375,-0.9729766845703125,0.262664794921875
1737749435685259500,12.460259521484375,-0.0121002197265625,-1.016571044921875,0.2694549560546875
1737749435695326500,12.470326416015626,-0.0560760498046875,-1.057647705078125,0.3033905029296875
1737749435705392600,12.480392578125,-0.1115264892578125,-1.0934600830078125,0.4106597900390625
1737749435715459600,12.49045947265625,-0.1043548583984375,-1.080810546875,0.363067626953125
1737749435725526500,12.500526611328125,-0.0201263427734375,-1.044952392578125,0.2714996337890625
1737749435735593500,12.510593505859376,-0.0064544677734375,-1.02276611328125,0.1711273193359375
1737749435745660400,12.520660400390625,-0.0330047607421875,-0.9954376220703125,0.0606536865234375
1737749435755727600,12.5307275390625,0.0359954833984375,-0.959503173828125,0.0185699462890625
1737749435765793500,12.54079345703125,0.0615692138671875,-0.916015625,0.042755126953125
1737749435775860500,12.550860595703124,0.01995849609375,-0.93267822265625,0.1571197509765625
1737749435785927400,12.560927490234375,0.0035552978515625,-1.0052490234375,0.22930908203125
1737749435795994600,12.57099462890625,0.0320587158203125,-1.0264739990234375,0.280548095703125
1737749435806061600,12.5810615234375,0.003631591796875,-0.95025634765625,0.2517852783203125
1737749435816128500,12.59112841796875,-0.087860107421875,-0.7931365966796875,0.12664794921875
1737749435826194400,12.6011943359375,-0.1327667236328125,-0.6876678466796875,0.0585174560546875
1737749435836261600,12.61126171875,-0.1350555419921875,-0.8440093994140625,0.0520172119140625
1737749435846328600,12.62132861328125,-0.0666656494140625,-1.1382904052734375,0.08233642578125
1737749435856395500,12.6313955078125,0.1448974609375,-1.2504730224609375,0.1823272705078125
1737749435866462500,12.64146240234375,0.1763916015625,-1.0208587646484375,0.0377044677734375
1737749435876529700,12.65152978515625,0.0898590087890625,-0.69024658203125,-0.0951690673828125
1737749435886595600,12.661595703125,-0.00042724609375,-0.5645294189453125,-0.094268798828125
1737749435896662500,12.67166259765625,-0.1204071044921875,-0.683441162109375,-0.088348388671875
1737749435906729500,12.6817294921875,-0.2160797119140625,-0.90594482421875,-0.1373748779296875
1737749435916796700,12.691796630859375,-0.1392669677734375,-1.1771697998046875,-0.111724853515625
1737749435926863600,12.701863525390625,0.032928466796875,-1.3343963623046875,0.0091552734375
1737749435936930600,12.7119306640625,0.0015411376953125,-1.169403076171875,0.0327606201171875
1737749435946996700,12.721996826171875,-0.076690673828125,-0.8898468017578125,-0.00286865234375
1737749435957063700,12.732063720703126,-0.1615753173828125,-0.800537109375,0.011810302734375
1737749435967130600,12.742130615234375,-0.2639617919921875,-0.8964996337890625,0.054351806640625
1737749435977197600,12.752197509765624,-0.3465728759765625,-1.03302001953125,0.1268463134765625
1737749435987264500,12.762264404296875,-0.3570556640625,-1.1146087646484375,0.1700439453125
1737749435997331700,12.772331787109374,-0.3094024658203125,-1.1521148681640625,0.095672607421875
1737749436007397600,12.782397705078125,-0.2371826171875,-1.176544189453125,-0.03515625
1737749436017464600,12.792464599609374,-0.160186767578125,-1.18780517578125,-0.1486968994140625
1737749436027531500,12.802531494140625,-0.1109466552734375,-1.1951751708984375,-0.2356719970703125
1737749436037598700,12.8125986328125,-0.1168212890625,-1.191375732421875,-0.286346435546875
1737749436047665700,12.822665771484376,-0.165374755859375,-1.1461334228515625,-0.2953033447265625
1737749436057732600,12.832732666015625,-0.2017364501953125,-1.0573272705078125,-0.290771484375
1737749436067798500,12.842798583984376,-0.220184326171875,-0.95806884765625,-0.3053436279296875
1737749436077865700,12.85286572265625,-0.215240478515625,-0.9102325439453125,-0.3447113037109375
1737749436087932700,12.8629326171875,-0.1924285888671875,-0.9294586181640625,-0.4000396728515625
1737749436097999600,12.87299951171875,-0.1461944580078125,-0.94989013671875,-0.4442901611328125
1737749436108066600,12.883066650390624,-0.0935821533203125,-0.9289703369140625,-0.4594573974609375
1737749436118133500,12.893133544921875,-0.0485687255859375,-0.89495849609375,-0.4742431640625
1737749436128199700,12.90319970703125,-0.0298919677734375,-0.8662567138671875,-0.483642578125
1737749436138266600,12.9132666015625,-0.008087158203125,-0.85015869140625,-0.4785614013671875
1737749436148333600,12.92333349609375,0.0122833251953125,-0.83709716796875,-0.464813232421875
1737749436158400500,12.933400390625,0.0201568603515625,-0.82952880859375,-0.44403076171875
1737749436168467500,12.943467529296875,0.0043487548828125,-0.8194580078125,-0.4349822998046875
1737749436178533600,12.95353369140625,0.0074920654296875,-0.8193206787109375,-0.438690185546875
1737749436188600600,12.9636005859375,0.019561767578125,-0.8288421630859375,-0.416717529296875
1737749436198667500,12.97366748046875,0.016510009765625,-0.839569091796875,-0.3607025146484375
1737749436208734500,12.983734375,0.0132598876953125,-0.8747100830078125,-0.3338775634765625
1737749436218801400,12.993801513671874,0.0411224365234375,-0.9157867431640625,-0.35308837890625
1737749436228868600,13.00386865234375,0.0691680908203125,-0.9262847900390625,-0.3855438232421875
1737749436238934500,13.0139345703125,0.111541748046875,-0.9285430908203125,-0.40032958984375
1737749436249001500,13.02400146484375,0.149932861328125,-0.9385528564453125,-0.3735198974609375
1737749436259068400,13.034068359375,0.159515380859375,-0.954986572265625,-0.323333740234375
1737749436269135400,13.04413525390625,0.1449432373046875,-0.982879638671875,-0.28118896484375
1737749436279202600,13.05420263671875,0.1439056396484375,-1.0193634033203125,-0.249755859375
1737749436289269800,13.064269775390626,0.1569976806640625,-1.027862548828125,-0.2286224365234375
1737749436299335400,13.07433544921875,0.1616363525390625,-1.0271148681640625,-0.21783447265625
1737749436309402400,13.08440234375,0.1520538330078125,-1.041656494140625,-0.2107696533203125
1737749436319469600,13.094469482421875,0.1664886474609375,-1.059906005859375,-0.198333740234375
1737749436329536800,13.104536865234374,0.19769287109375,-1.0635223388671875,-0.1747283935546875
1737749436339603700,13.114603759765625,0.2121734619140625,-1.0615692138671875,-0.1367645263671875
1737749436349670700,13.124670654296875,0.214569091796875,-1.0758209228515625,-0.11224365234375
1737749436359736600,13.134736572265625,0.2236785888671875,-1.102813720703125,-0.0980224609375
1737749436369803800,13.1448037109375,0.2260589599609375,-1.1307525634765625,-0.0831298828125
1737749436379870700,13.15487060546875,0.2073822021484375,-1.149810791015625,-0.065399169921875
1737749436389937700,13.164937744140625,0.1816253662109375,-1.16961669921875,-0.0567474365234375
1737749436400004600,13.175004638671876,0.174652099609375,-1.1817779541015625,-0.0582275390625
1737749436410070800,13.18507080078125,0.1922760009765625,-1.1768341064453125,-0.058837890625
