time,seconds_elapsed,z,y,x
1737749423544679200,0.31967919921875,-0.012471583671867847,-0.01672971062362194,-0.010357299819588661
1737749423554746000,0.32974609375,-0.013668407686054707,-0.015191735699772835,-0.013464942574501038
1737749423564813000,0.33981298828125,-0.011799135245382786,-0.017902567982673645,-0.007281614933162928
1737749423574880300,0.34988037109375,-0.01028486154973507,-0.024547154083848,-0.008946357294917107
1737749423584946200,0.3599462890625,-0.008351939730346203,-0.03141065314412117,-0.01649269089102745
1737749423595013000,0.37001318359375,-0.009407083503901958,-0.03639103099703789,-0.020107664167881012
1737749423605080000,0.380080078125,-0.014705709181725979,-0.03208283334970474,-0.02695837989449501
1737749423615147300,0.390147216796875,-0.02076493389904499,-0.014750183559954166,-0.024108266457915306
1737749423625214500,0.40021435546875,-0.030834877863526344,-0.002115348819643259,-0.022773755714297295
1737749423635281400,0.410281494140625,-0.03242079168558121,0.005144428461790085,-0.017531322315335274
1737749423645347300,0.420347412109375,-0.03314676880836487,-0.004142014309763908,-0.010488061234354973
1737749423655414300,0.430414306640625,-0.027153590694069862,-0.013129916973412037,-0.005071457475423813
1737749423665481200,0.440481201171875,-0.017103886231780052,-0.019462114199995995,0.0027806065045297146
1737749423675548400,0.45054833984375,-0.014762700535356998,-0.028477180749177933,-0.00031372037483379245
1737749423685615400,0.460615478515625,-0.01576378382742405,-0.03478913754224777,-0.0008692557457834482
1737749423695681300,0.470681396484375,-0.013047358952462673,-0.029583990573883057,0.0014692660188302398
1737749423705748200,0.480748291015625,-0.010477940551936626,-0.011382883414626122,0.004131894558668137
1737749423715815400,0.4908154296875,-0.007685616612434387,0.008489624597132206,0.004025634378194809
1737749423725882400,0.50088232421875,-0.00811784714460373,0.017657291144132614,0.007397728972136974
1737749423735949300,0.51094921875,-0.0012112056137993932,0.017721472308039665,0.007351655978709459
1737749423746016300,0.521016357421875,-0.006296245381236076,0.008960205130279064,0.006680273450911045
1737749423756082200,0.531082275390625,-0.005160140804946423,-0.00947845634073019,0.0041369544342160225
1737749423766149400,0.5411494140625,-0.0017648768844082952,-0.037575870752334595,0.005041630007326603
1737749423776216300,0.55121630859375,0.008753810077905655,-0.052436843514442444,-0.0007411577389575541
1737749423786283300,0.561283203125,0.011711783707141876,-0.050207242369651794,-0.004661597311496735
1737749423796350200,0.57135009765625,-0.003979295492172241,-0.04807644709944725,-0.010360228829085827
1737749423806416400,0.58141650390625,-0.015222628600895405,-0.04758669435977936,-0.0034618431236594915
1737749423816483300,0.5914833984375,-0.014814365655183792,-0.03977697342634201,-0.0034352114889770746
1737749423826550300,0.60155029296875,-0.021636053919792175,-0.030953388661146164,-0.0015843145083636045
1737749423836617200,0.6116171875,-0.024704281240701675,-0.027669711038470268,-0.002689260058104992
1737749423846684200,0.62168408203125,-0.02652588300406933,-0.019761720672249794,-0.0007166566210798919
1737749423856751000,0.631751220703125,-0.02381931245326996,-0.021389978006482124,-0.0003051982494071126
1737749423866817300,0.6418173828125,-0.02099316567182541,-0.028895031660795212,0.002758502261713147
1737749423876884200,0.65188427734375,-0.014782408252358437,-0.043594349175691605,-0.002376871183514595
1737749423886951200,0.661951171875,-0.0059873186983168125,-0.054064832627773285,-0.005256547126919031
1737749423897018000,0.67201806640625,0.0012993563432246447,-0.06279706954956055,-0.005419532768428326
1737749423907085000,0.6820849609375,0.00836978293955326,-0.06549005955457687,-0.00948165263980627
1737749423917152300,0.69215234375,0.010839331895112991,-0.06142900511622429,-0.006418218370527029
1737749423927218200,0.70221826171875,0.010382333770394325,-0.051965728402137756,-0.0030394657514989376
1737749423937285000,0.71228515625,0.006878145970404148,-0.03399551659822464,-0.002079928759485483
1737749423947352000,0.72235205078125,0.005086371209472418,-0.012952816672623158,-0.002042910782620311
1737749423957419300,0.732419189453125,-0.0025683525018393993,0.005733519326895475,-0.004225904121994972
1737749423967486200,0.742486328125,-0.0012397015234455466,0.009871006943285465,0.0031529164407402277
1737749423977552100,0.75255224609375,0.006925283931195736,0.008469385094940662,0.005605421494692564
1737749423987619000,0.762619140625,0.006719421595335007,0.008864331990480423,0.00577719509601593
1737749423997686300,0.772686279296875,0.0028003137558698654,-0.0016900419723242521,0.0013137373607605696
1737749424007753200,0.782753173828125,0.012176771648228168,-0.02515542134642601,-0.003997670952230692
1737749424017820400,0.7928203125,0.01847967505455017,-0.03435530886054039,-0.007109042257070541
1737749424027887400,0.802887451171875,0.013349360786378384,-0.03194594755768776,-0.01098713744431734
1737749424037953000,0.812953125,0.012738431803882122,-0.017773138359189034,-0.010026268661022186
1737749424048020500,0.8230205078125,0.017375795170664787,-0.005035505164414644,-0.0048855687491595745
1737749424058087400,0.83308740234375,0.009580455720424652,0.0041611893102526665,-0.004089816473424435
1737749424068154400,0.843154296875,0.007257380057126284,0.01601172238588333,0.0004700479330495
1737749424078221300,0.85322119140625,0.0015385081060230732,0.0242502111941576,0.0008096009842120111
1737749424088287200,0.863287353515625,-0.003323625074699521,0.02568565495312214,0.006265618838369846
1737749424098354400,0.8733544921875,-0.0012309130979701877,0.018549716100096703,0.004345479886978865
1737749424108421400,0.88342138671875,-0.0011704593198373914,0.01119086891412735,0.005167065188288689
1737749424118488300,0.89348828125,0.006989998742938042,0.006030461750924587,0.002746518002822995
1737749424128555300,0.90355517578125,0.009995375759899616,0.0032346753869205713,-0.006189186125993729
1737749424138622200,0.913622314453125,0.005456550512462854,0.005110073368996382,-0.0065377941355109215
1737749424148688400,0.9236884765625,-0.002171275205910206,0.005334577988833189,-0.0038693067617714405
1737749424158755300,0.93375537109375,-0.0021169467363506556,-0.0014626081101596355,-0.0027028422337025404
1737749424168822300,0.943822265625,0.0011486213188618422,0.00341577036306262,0.0012921657180413604
1737749424178889200,0.95388916015625,-0.0062272693030536175,0.010325341485440731,-0.0026205505710095167
1737749424188956200,0.9639560546875,-0.013887586072087288,0.01531850267201662,-0.001645567244850099
1737749424199022300,0.974022216796875,-0.015268168412148952,0.01443779468536377,-0.002575543010607362
1737749424209089300,0.98408935546875,-0.015593340620398521,0.013604758307337761,0.0015779229579493403
1737749424219156200,0.99415625,-0.01486683078110218,0.014436463825404644,0.00039521310827694833
1737749424229223200,1.00422314453125,-0.004808603785932064,0.017915617674589157,0.00138084904756397
1737749424239290000,1.0142900390625,-0.0032919333316385746,0.015171496197581291,-0.002148372121155262
1737749424249357300,1.024357421875,-0.0002788329729810357,0.0170277189463377,0.00013209278404247016
1737749424259423200,1.03442333984375,0.0015704660909250379,0.01564234308898449,0.0012061456218361855
1737749424269490200,1.044490234375,0.0008737831376492977,0.021948708221316338,0.0054541537538170815
1737749424279557000,1.05455712890625,0.0013046825770288706,0.019596604630351067,0.006611563730984926
1737749424289624300,1.064624267578125,0.001392300589941442,0.019845077767968178,0.00637747161090374
1737749424299691300,1.074691162109375,0.0008322378271259367,0.017836786806583405,0.003186472225934267
1737749424309758200,1.08475830078125,-0.004538292996585369,0.021377727389335632,0.0023811322171241045
1737749424319824100,1.09482421875,-0.010000701993703842,0.030191725119948387,0.005116465035825968
1737749424329891300,1.104891357421875,-0.017916683107614517,0.03954660892486572,0.00962493009865284
1737749424339958300,1.114958251953125,-0.019775036722421646,0.04772304743528366,0.016565127298235893
1737749424350025200,1.125025146484375,-0.02485288493335247,0.041959699243307114,0.020799821242690086
1737749424360092200,1.135092041015625,-0.023696009069681168,0.01998116448521614,0.028258269652724266
1737749424370158000,1.145157958984375,-0.015075089409947395,-0.00041784998029470444,0.028449485078454018
1737749424380225300,1.155225341796875,-0.009007609449326992,-0.013590111397206783,0.02847238816320896
1737749424390292200,1.165292236328125,-0.013828463852405548,-0.020776385441422462,0.03229641914367676
1737749424400359200,1.175359130859375,-0.021040569990873337,-0.0122481444850564,0.03171771392226219
1737749424410426000,1.185426025390625,-0.024835841730237007,0.005735650192946196,0.03479286655783653
1737749424420493000,1.1954931640625,-0.022522618994116783,0.02774161659181118,0.03922010585665703
1737749424430559200,1.205559326171875,-0.016758207231760025,0.043060917407274246,0.04434429481625557
1737749424440622600,1.21562255859375,-0.00851705577224493,0.06383916735649109,0.04221909120678902
1737749424450689500,1.225689453125,0.005043228156864643,0.07972226291894913,0.03983849287033081
1737749424460756500,1.235756591796875,0.010336260311305523,0.08546057343482971,0.02924363873898983
1737749424470823400,1.245823486328125,0.006207029335200787,0.0670328289270401,0.021856829524040222
1737749424480889600,1.2558896484375,0.010007626377046108,0.035119105130434036,0.02610989660024643
1737749424490956500,1.26595654296875,0.021813420578837395,0.0014887070283293724,0.029473204165697098
1737749424501023500,1.2760234375,0.012153602205216885,-0.03136457875370979,0.02863563969731331
1737749424511090400,1.28609033203125,0.021886123344302177,-0.06619899719953537,0.023079220205545425
1737749424521157400,1.296157470703125,0.033968087285757065,-0.09082018584012985,0.015144864097237587
1737749424531224600,1.306224609375,0.04453524202108383,-0.11127432435750961,0.0038306908681988716
1737749424541290500,1.31629052734375,0.048165399581193924,-0.13543371856212616,-0.007198790553957224
1737749424551357400,1.326357421875,0.05458761006593704,-0.13526834547519684,-0.014596785418689251
1737749424561424400,1.33642431640625,0.0611184798181057,-0.1255941390991211,-0.028053205460309982
1737749424571491600,1.34649169921875,0.06775481253862381,-0.10381428152322769,-0.036909814924001694
1737749424581558500,1.35655859375,0.06607302278280258,-0.0673513412475586,-0.05764571949839592
1737749424591624400,1.36662451171875,0.056782856583595276,-0.025541845709085464,-0.06888159364461899
1737749424601691400,1.37669140625,0.04823703691363335,0.019880231469869614,-0.06714148819446564
1737749424611758600,1.386758544921875,0.04198713228106499,0.05952085182070732,-0.05769232288002968
1737749424621825500,1.396825439453125,0.045154694467782974,0.0720403715968132,-0.04743249714374542
1737749424631892500,1.406892578125,0.073252372443676,0.04865888133645058,-0.05548829212784767
1737749424641959400,1.41695947265625,0.12130139768123627,0.008624646812677383,-0.05675409361720085
1737749424652025300,1.427025390625,0.16883322596549988,-0.04149923846125603,-0.06367111951112747
1737749424662092500,1.437092529296875,0.21818692982196808,-0.11668507009744644,-0.10031488537788391
1737749424672159500,1.447159423828125,0.25826457142829895,-0.195200115442276,-0.11615190654993057
1737749424682226400,1.457226318359375,0.298979789018631,-0.26792171597480774,-0.12535445392131805
1737749424692293400,1.46729345703125,0.35726916790008545,-0.3303387761116028,-0.11803130060434341
1737749424702359600,1.477359619140625,0.4386974573135376,-0.4040023386478424,-0.10903593897819519
1737749424712426500,1.487426513671875,0.5279272198677063,-0.44596362113952637,-0.07864554226398468
1737749424722493400,1.497493408203125,0.6371548771858215,-0.4978278875350952,-0.04947381094098091
1737749424732560400,1.507560302734375,0.7400610446929932,-0.5294542908668518,-0.004336691461503506
1737749424742627300,1.51762744140625,0.8170844316482544,-0.5671478509902954,0.0546395443379879
1737749424752694500,1.527694580078125,0.9082862734794617,-0.6098689436912537,0.11208152770996094
1737749424762760400,1.537760498046875,0.9989173412322998,-0.6360840201377869,0.1499788463115692
1737749424772827400,1.547827392578125,1.064058542251587,-0.6406614780426025,0.15566761791706085
1737749424782894600,1.55789453125,1.1179145574569702,-0.6209655404090881,0.16671122610569
1737749424792961500,1.56796142578125,1.188173532485962,-0.5658684372901917,0.20700430870056152
1737749424803028500,1.578028564453125,1.2449380159378052,-0.43657439947128296,0.256093293428421
1737749424813094400,1.588094482421875,1.2589526176452637,-0.27564382553100586,0.29476025700569153
1737749424823161600,1.59816162109375,1.2237904071807861,-0.11994238197803497,0.3153584897518158
1737749424833228500,1.608228515625,1.1794594526290894,0.03785443678498268,0.3470144271850586
1737749424843295500,1.61829541015625,1.155341625213623,0.22324825823307037,0.4040561318397522
1737749424853362700,1.62836279296875,1.1438542604446411,0.42769861221313477,0.4589875638484955
1737749424863429600,1.6384296875,1.1473087072372437,0.6084704995155334,0.4925045073032379
1737749424873495600,1.64849560546875,1.165603756904602,0.7600371241569519,0.5012316703796387
1737749424883562500,1.6585625,1.1872220039367676,0.8822133541107178,0.5007075667381287
1737749424893629400,1.66862939453125,1.1953744888305664,0.9692047238349915,0.4956190586090088
1737749424903696600,1.678696533203125,1.167765736579895,1.0182950496673584,0.47816523909568787
1737749424913763600,1.688763671875,1.1219325065612793,1.0177030563354492,0.46699753403663635
1737749424923829500,1.69882958984375,1.0551960468292236,0.9793338179588318,0.4419819414615631
1737749424933896400,1.708896484375,0.9854763746261597,0.8768526911735535,0.402761846780777
1737749424943963600,1.718963623046875,0.927094042301178,0.7219794988632202,0.36213451623916626
1737749424954030600,1.729030517578125,0.896240234375,0.5382211208343506,0.3295280933380127
1737749424964097500,1.73909765625,0.8969515562057495,0.33533671498298645,0.29390352964401245
1737749424974163500,1.74916357421875,0.9071688055992126,0.10945644974708557,0.2654029130935669
1737749424984230400,1.75923046875,0.9193665981292725,-0.09171553701162338,0.24552799761295319
1737749424994297600,1.769297607421875,0.9341908097267151,-0.26630252599716187,0.23019644618034363
1737749425004364500,1.779364501953125,0.9367890357971191,-0.3821452260017395,0.21752673387527466
1737749425014431500,1.789431396484375,0.9142354726791382,-0.4510614573955536,0.19331113994121552
1737749425024498400,1.79949853515625,0.8630793690681458,-0.4756416380405426,0.17326605319976807
1737749425034564600,1.809564697265625,0.7879018187522888,-0.42147746682167053,0.17056268453598022
1737749425044631600,1.819631591796875,0.7155402302742004,-0.3108348250389099,0.17820994555950165
1737749425054698500,1.829698486328125,0.6558385491371155,-0.18706922233104706,0.2023397833108902
1737749425064765400,1.839765380859375,0.5955310463905334,-0.07300709933042526,0.21980586647987366
1737749425074832400,1.849832275390625,0.5349012017250061,0.004795820452272892,0.2203827053308487
1737749425084898600,1.859898681640625,0.4906461536884308,0.04351551830768585,0.22036007046699524
1737749425094965500,1.869965576171875,0.4873126745223999,0.06658142060041428,0.22931841015815735
1737749425105032400,1.880032470703125,0.518008291721344,0.1334099918603897,0.2545723617076874
1737749425115099400,1.890099365234375,0.5451690554618835,0.19870910048484802,0.2558501362800598
1737749425125166300,1.900166259765625,0.5143184661865234,0.25560086965560913,0.26085954904556274
1737749425135232500,1.910232421875,0.4489450454711914,0.27941566705703735,0.27669045329093933
1737749425145299500,1.920299560546875,0.4163234531879425,0.26962828636169434,0.29708465933799744
1737749425155366400,1.930366455078125,0.40873265266418457,0.25434520840644836,0.3214171826839447
1737749425165433300,1.940433349609375,0.3942330479621887,0.226133793592453,0.28375235199928284
1737749425175500300,1.950500244140625,0.291810005903244,0.16875119507312775,0.2608265280723572
1737749425185567500,1.9605673828125,0.15509876608848572,0.023483488708734512,0.27013668417930603
1737749425195633400,1.97063330078125,0.020986508578062057,-0.12915106117725372,0.24980983138084412
1737749425205700400,1.980700439453125,-0.08848858624696732,-0.2513376772403717,0.1917838156223297
1737749425215767300,1.990767333984375,-0.13585050404071808,-0.348220556974411,0.15305505692958832
1737749425225834500,2.00083447265625,-0.14571832120418549,-0.37752678990364075,0.13427124917507172
1737749425235901700,2.010901611328125,-0.15440422296524048,-0.323300838470459,0.13498684763908386
1737749425245967400,2.02096728515625,-0.14885684847831726,-0.23234082758426666,0.15053997933864594
1737749425256034600,2.03103466796875,-0.16022776067256927,-0.10258229821920395,0.1677597016096115
1737749425266101500,2.0411015625,-0.21456556022167206,0.08652982860803604,0.17197735607624054
1737749425276168700,2.051168701171875,-0.2927277386188507,0.2806186079978943,0.1805087924003601
1737749425286235600,2.061235595703125,-0.3587009012699127,0.42651137709617615,0.19427813589572906
1737749425296301600,2.071301513671875,-0.41586965322494507,0.5089447498321533,0.20670630037784576
1737749425306368500,2.081368408203125,-0.4689539074897766,0.5087372660636902,0.2152063101530075
1737749425316435500,2.091435546875,-0.513155996799469,0.41666752099990845,0.2106003761291504
1737749425326502700,2.101502685546875,-0.5317538976669312,0.25915300846099854,0.1927444189786911
1737749425336569600,2.111569580078125,-0.5141687989234924,0.07670809328556061,0.17568980157375336
1737749425346636500,2.121636474609375,-0.4926901161670685,-0.10123208165168762,0.1599007248878479
1737749425356702500,2.131702392578125,-0.500088632106781,-0.2499677538871765,0.15176290273666382
1737749425366769700,2.141769775390625,-0.5197920203208923,-0.37680771946907043,0.14173103868961334
1737749425376836600,2.151836669921875,-0.5413112044334412,-0.4638904333114624,0.11865394562482834
1737749425386903600,2.161903564453125,-0.5547106266021729,-0.501055896282196,0.100580133497715
1737749425396970500,2.171970458984375,-0.5649813413619995,-0.46678900718688965,0.08156756311655045
1737749425407036400,2.182036376953125,-0.5779195427894592,-0.39579927921295166,0.07256448268890381
1737749425417103600,2.192103515625,-0.597292423248291,-0.3041846454143524,0.08653648942708969
1737749425427170600,2.202170654296875,-0.6234963536262512,-0.2190452665090561,0.09875427186489105
1737749425437237500,2.212237548828125,-0.6583245992660522,-0.14640088379383087,0.10757546126842499
1737749425447308500,2.22230859375,-0.7018851637840271,-0.10660553723573685,0.1074947714805603
1737749425457374500,2.23237451171875,-0.7450667023658752,-0.12923948466777802,0.08975119143724442
1737749425467441700,2.242441650390625,-0.7867140173912048,-0.17539285123348236,0.05762680992484093
1737749425477508600,2.252508544921875,-0.8395178318023682,-0.23290462791919708,0.026026008650660515
1737749425487575600,2.262575439453125,-0.9157135486602783,-0.2752384841442108,-0.00714632635936141
1737749425497642500,2.272642578125,-1.019291639328003,-0.32466569542884827,-0.0530104860663414
1737749425507709400,2.28270947265625,-1.1473883390426636,-0.4042430818080902,-0.09500427544116974
1737749425517775600,2.292775634765625,-1.2844727039337158,-0.5102478265762329,-0.1444181650876999
1737749425527842600,2.302842529296875,-1.3978554010391235,-0.6746764183044434,-0.20922832190990448
1737749425537909500,2.312909423828125,-1.425241231918335,-0.8891804814338684,-0.2636609375476837
1737749425547976400,2.3229765625,-1.3423279523849487,-1.0871840715408325,-0.2768009603023529
1737749425558043400,2.33304345703125,-1.1958951950073242,-1.2322221994400024,-0.2750920355319977
1737749425568109600,2.343109619140625,-1.0542274713516235,-1.277222752571106,-0.3064877688884735
1737749425578176500,2.353176513671875,-0.953462541103363,-1.216856598854065,-0.3708270788192749
1737749425588243500,2.363243408203125,-0.9313164949417114,-1.109043836593628,-0.4228660464286804
1737749425598310400,2.373310302734375,-0.9438464045524597,-0.9433462619781494,-0.4317745864391327
1737749425608377300,2.38337744140625,-0.9396165013313293,-0.7283143401145935,-0.4209997057914734
1737749425618443500,2.393443603515625,-0.8874850869178772,-0.451631098985672,-0.38689684867858887
1737749425628510500,2.403510498046875,-0.8352408409118652,-0.1313769370317459,-0.34225720167160034
1737749425638577400,2.413577392578125,-0.8304396867752075,0.20425619184970856,-0.3147291839122772
1737749425648644400,2.423644287109375,-0.8913205862045288,0.5028966665267944,-0.2947123348712921
1737749425658711600,2.433711669921875,-0.9581667184829712,0.7283881306648254,-0.25921106338500977
1737749425668778500,2.443778564453125,-0.9984936714172363,0.8548446297645569,-0.231944277882576
1737749425678844400,2.453844482421875,-1.0101673603057861,0.8740212321281433,-0.23006515204906464
1737749425688911400,2.463911376953125,-1.0254653692245483,0.7950425148010254,-0.2573985159397125
1737749425698978300,2.473978271484375,-1.0702307224273682,0.6324525475502014,-0.3119770586490631
1737749425709045500,2.48404541015625,-1.1541277170181274,0.40626204013824463,-0.3800266981124878
1737749425719112400,2.494112548828125,-1.2643048763275146,0.11267035454511642,-0.46803298592567444
1737749425729178400,2.504178466796875,-1.3588640689849854,-0.23082469403743744,-0.5607985854148865
1737749425739245300,2.514245361328125,-1.4060595035552979,-0.56792813539505,-0.6470142006874084
1737749425749312500,2.5243125,-1.4258290529251099,-0.8498562574386597,-0.7100117802619934
1737749425759379500,2.53437939453125,-1.4700478315353394,-1.0939751863479614,-0.7771471738815308
1737749425769446700,2.54444677734375,-1.5656579732894897,-1.3115665912628174,-0.8647353053092957
1737749425779512300,2.55451220703125,-1.6922948360443115,-1.4887781143188477,-0.9654659032821655
1737749425789579300,2.564579345703125,-1.7996816635131836,-1.6533663272857666,-1.054500699043274
1737749425799646500,2.574646484375,-1.867781400680542,-1.8017631769180298,-1.1425837278366089
1737749425809713700,2.584713623046875,-1.9075891971588135,-1.9299962520599365,-1.2206662893295288
1737749425819780600,2.594780517578125,-1.9261815547943115,-2.048609733581543,-1.2894376516342163
1737749425829846300,2.60484619140625,-1.9283448457717896,-2.1522622108459473,-1.3361965417861938
1737749425839913700,2.614913818359375,-1.9212102890014648,-2.2082114219665527,-1.3679255247116089
1737749425849980700,2.624980712890625,-1.8977004289627075,-2.2006070613861084,-1.3969675302505493
1737749425860047600,2.635047607421875,-1.854501485824585,-2.129920244216919,-1.4128756523132324
1737749425870114600,2.645114501953125,-1.7993296384811401,-2.006033420562744,-1.4163603782653809
1737749425880181500,2.655181396484375,-1.7299518585205078,-1.8767048120498657,-1.3941344022750854
1737749425890247700,2.66524755859375,-1.6246057748794556,-1.721284031867981,-1.3285578489303589
1737749425900314600,2.675314697265625,-1.4721485376358032,-1.5322619676589966,-1.2474819421768188
1737749425910381600,2.685381591796875,-1.2854644060134888,-1.3372714519500732,-1.176774501800537
1737749425920448500,2.695448486328125,-1.0865689516067505,-1.1385724544525146,-1.1368930339813232
1737749425930515500,2.705515380859375,-0.8688802719116211,-0.9323961138725281,-1.11829674243927
1737749425940581600,2.71558154296875,-0.6370118856430054,-0.7184993028640747,-1.112833023071289
1737749425950648600,2.725648681640625,-0.402055025100708,-0.5264464616775513,-1.1196733713150024
1737749425960715500,2.735715576171875,-0.1809426248073578,-0.37372538447380066,-1.114881992340088
1737749425970782500,2.745782470703125,0.012842029333114624,-0.26564526557922363,-1.0978727340698242
1737749425980849400,2.755849365234375,0.17913034558296204,-0.1829032450914383,-1.0516256093978882
1737749425990915600,2.76591552734375,0.3280961215496063,-0.13867558538913727,-0.9973610043525696
1737749426000982500,2.775982421875,0.46375247836112976,-0.11639824509620667,-0.9382249712944031
1737749426011049500,2.786049560546875,0.5859470963478088,-0.07800345867872238,-0.8767219185829163
1737749426021116400,2.796116455078125,0.6774354577064514,-0.016333166509866714,-0.8104054927825928
1737749426031183400,2.806183349609375,0.7347986102104187,0.0725434422492981,-0.7370063662528992
1737749426041249500,2.81624951171875,0.7808098196983337,0.1814771145582199,-0.6710636019706726
1737749426051316500,2.82631640625,0.8099849820137024,0.30200061202049255,-0.6010515093803406
1737749426061383400,2.836383544921875,0.8199651837348938,0.42109209299087524,-0.5332425832748413
1737749426071450400,2.846450439453125,0.8051063418388367,0.5349630117416382,-0.47184690833091736
1737749426081517600,2.856517578125,0.7691259980201721,0.6365085244178772,-0.4145255386829376
1737749426091583500,2.86658349609375,0.7290366291999817,0.7216777801513672,-0.35687822103500366
1737749426101650400,2.876650390625,0.6817266345024109,0.7872511744499207,-0.30358970165252686
1737749426111717400,2.88671728515625,0.630833089351654,0.8406241536140442,-0.2411729395389557
1737749426121784600,2.89678466796875,0.5776369571685791,0.8844048976898193,-0.17508579790592194
1737749426131851500,2.9068515625,0.5189544558525085,0.9333335757255554,-0.11693114787340164
1737749426141917400,2.91691748046875,0.47286662459373474,0.9820433259010315,-0.051956407725811005
1737749426151984400,2.926984375,0.4466507136821747,1.0316444635391235,0.016018114984035492
1737749426162051300,2.93705126953125,0.4381174147129059,1.0715305805206299,0.07431098073720932
1737749426172118500,2.947118408203125,0.42668020725250244,1.1041796207427979,0.10854458808898926
1737749426182185500,2.957185546875,0.40548890829086304,1.1194312572479248,0.1437332034111023
1737749426192251400,2.96725146484375,0.3717208206653595,1.1012237071990967,0.18378235399723053
1737749426202318300,2.977318359375,0.32792967557907104,1.0603793859481812,0.22661210596561432
1737749426212385500,2.987385498046875,0.28947389125823975,1.008080244064331,0.25969043374061584
1737749426222452500,2.997452392578125,0.261813759803772,0.9668041467666626,0.2712285816669464
1737749426232519400,3.00751953125,0.23705382645130157,0.91685551404953,0.2768891155719757
1737749426242585300,3.01758544921875,0.21530139446258545,0.8687788248062134,0.3075048327445984
1737749426252652300,3.02765234375,0.2053169310092926,0.8375934362411499,0.35855868458747864
1737749426262719500,3.037719482421875,0.1983109563589096,0.8459144830703735,0.41848912835121155
1737749426272786400,3.047786376953125,0.18599596619606018,0.8890204429626465,0.47671860456466675
1737749426282853600,3.057853515625,0.17928479611873627,0.9476317763328552,0.5390152931213379
1737749426292919300,3.067919189453125,0.16281448304653168,1.0315133333206177,0.586309552192688
1737749426302986500,3.077986572265625,0.13934670388698578,1.143843412399292,0.6291115880012512
1737749426313053700,3.0880537109375,0.10687398165464401,1.2713593244552612,0.6719104647636414
1737749426323120600,3.09812060546875,0.07084913551807404,1.3955243825912476,0.7287364602088928
1737749426333187600,3.1081875,0.04983866214752197,1.515183925628662,0.7912536263465881
1737749426343253500,3.11825341796875,0.04557361081242561,1.6275075674057007,0.8545750975608826
1737749426353320700,3.12832080078125,0.05968170613050461,1.714383840560913,0.9094905257225037
1737749426363387600,3.1383876953125,0.09394992887973785,1.7779138088226318,0.9648635387420654
1737749426373454600,3.14845458984375,0.14650662243366241,1.8283418416976929,1.0093960762023926
1737749426383521500,3.158521484375,0.20211848616600037,1.8693805932998657,1.0364570617675781
1737749426393588500,3.16858837890625,0.2517520785331726,1.8958306312561035,1.0571247339248657
1737749426403654700,3.178654541015625,0.2936262786388397,1.9098204374313354,1.0789318084716797
1737749426413721600,3.1887216796875,0.32710862159729004,1.9204102754592896,1.0991507768630981
1737749426423788500,3.19878857421875,0.35436180233955383,1.9159725904464722,1.1355029344558716
1737749426433855500,3.20885546875,0.3946663439273834,1.9463437795639038,1.1798632144927979
1737749426443917600,3.21891748046875,0.4362071454524994,2.0081515312194824,1.2164555788040161
1737749426453984500,3.228984619140625,0.4497320055961609,2.0800418853759766,1.2447625398635864
1737749426464051500,3.239051513671875,0.4390290379524231,2.1459078788757324,1.252480387687683
1737749426474118400,3.249118408203125,0.42717689275741577,2.2050492763519287,1.2443190813064575
1737749426484185300,3.259185302734375,0.4256487786769867,2.229469060897827,1.2201733589172363
1737749426494252500,3.26925244140625,0.40373122692108154,2.2540442943573,1.1643569469451904
1737749426504318500,3.279318359375,0.35272637009620667,2.264063596725464,1.077733039855957
1737749426514385400,3.289385498046875,0.3066480755805969,2.25891375541687,1.042610764503479
1737749426524452400,3.299452392578125,0.2754158675670624,2.2758381366729736,1.0302542448043823
1737749426534519600,3.30951953125,0.26187288761138916,2.321406841278076,1.0174188613891602
1737749426544586500,3.31958642578125,0.25856924057006836,2.350400447845459,1.0015347003936768
1737749426554652400,3.32965234375,0.27683693170547485,2.332829475402832,0.9787178039550781
1737749426564719400,3.33971923828125,0.2825411558151245,2.2706522941589355,0.9494965672492981
1737749426574786300,3.349786376953125,0.2617439925670624,2.17740535736084,0.9156389832496643
1737749426584853500,3.359853515625,0.23275761306285858,2.0557217597961426,0.8794050812721252
1737749426594920400,3.36992041015625,0.21584920585155487,1.881165623664856,0.8379977345466614
1737749426604986400,3.379986328125,0.20903204381465912,1.6600918769836426,0.8129746317863464
1737749426615053300,3.39005322265625,0.21130318939685822,1.4151611328125,0.7875614166259766
1737749426625120500,3.40012060546875,0.22324426472187042,1.1788465976715088,0.7428253889083862
1737749426635187500,3.4101875,0.24566861987113953,0.9776738882064819,0.6973740458488464
1737749426645254700,3.420254638671875,0.25199228525161743,0.8301906585693359,0.6608138680458069
1737749426655320300,3.4303203125,0.2357395589351654,0.7496534585952759,0.6328171491622925
1737749426665387500,3.440387451171875,0.21668383479118347,0.7277551293373108,0.6112442016601562
1737749426675454500,3.450454345703125,0.19805821776390076,0.7425258159637451,0.5854347348213196
1737749426685521700,3.460521728515625,0.17805148661136627,0.7642417550086975,0.5473904013633728
1737749426695588600,3.470588623046875,0.18827509880065918,0.8146292567253113,0.5508426427841187
1737749426705654300,3.480654296875,0.20030859112739563,0.8728678226470947,0.5411921739578247
1737749426715721700,3.4907216796875,0.1830981820821762,0.9503074884414673,0.534085214138031
1737749426725788700,3.50078857421875,0.12868687510490417,0.9842619895935059,0.5246885418891907
1737749426735855600,3.510855712890625,0.07185900956392288,0.9715371131896973,0.5367990136146545
1737749426745922600,3.520922607421875,0.015456453897058964,0.9056795835494995,0.5343259572982788
1737749426755988500,3.530988525390625,-0.020501013845205307,0.777809202671051,0.5226767659187317
1737749426766055700,3.5410556640625,-0.0312519297003746,0.5949518084526062,0.5174316763877869
1737749426776122600,3.55112255859375,-0.03385942801833153,0.39222317934036255,0.5046038031578064
1737749426786189600,3.561189453125,-0.03277925029397011,0.19858473539352417,0.48684367537498474
1737749426796256500,3.571256591796875,-0.027785291895270348,0.038126345723867416,0.4580027163028717
1737749426806322700,3.58132275390625,-0.01016954705119133,-0.0746111199259758,0.4401877820491791
1737749426816389600,3.5913896484375,0.01356534380465746,-0.1189895048737526,0.4431785047054291
1737749426826456600,3.60145654296875,0.0179947130382061,-0.09870926290750504,0.42178666591644287
1737749426836523500,3.6115234375,-0.011759454384446144,-0.018445853143930435,0.41216838359832764
1737749426846590500,3.621590576171875,-0.06192568689584732,0.1295662522315979,0.4208396375179291
1737749426856656600,3.63165673828125,-0.12221699208021164,0.3122106194496155,0.4297684133052826
1737749426866723600,3.6417236328125,-0.1918219029903412,0.5182095766067505,0.4388362169265747
1737749426876790500,3.65179052734375,-0.2554898262023926,0.7419337630271912,0.4665650427341461
1737749426886857500,3.661857421875,-0.32972437143325806,0.9744269251823425,0.4880641996860504
1737749426896924400,3.67192431640625,-0.4139540195465088,1.1735421419143677,0.4810366630554199
1737749426906990600,3.681990478515625,-0.4875345230102539,1.3223849534988403,0.46579140424728394
1737749426917057500,3.6920576171875,-0.5213020443916321,1.4210246801376343,0.4076330065727234
1737749426927124500,3.70212451171875,-0.516814112663269,1.4425816535949707,0.3556521236896515
1737749426937191400,3.71219140625,-0.48839205503463745,1.3440520763397217,0.26550304889678955
1737749426947258400,3.72225830078125,-0.4239259660243988,1.099108099937439,0.1669096201658249
1737749426957324500,3.732324462890625,-0.29883596301078796,0.772121787071228,0.05251993238925934
1737749426967391500,3.7423916015625,-0.13870488107204437,0.46247708797454834,-0.07144142687320709
1737749426977458400,3.75245849609375,-0.0049795787781476974,0.21872009336948395,-0.21854166686534882
1737749426987525400,3.762525390625,0.07844553887844086,0.06290732324123383,-0.3608383536338806
1737749426997592600,3.772592529296875,0.11203519254922867,0.009648898616433144,-0.4717195928096771
1737749427007658500,3.782658447265625,0.09562931954860687,0.05438467860221863,-0.5530487895011902
1737749427017725400,3.792725341796875,0.05157957226037979,0.1343064159154892,-0.6304948329925537
1737749427027792400,3.80279248046875,0.013581588864326477,0.19233056902885437,-0.7001423835754395
1737749427037859300,3.812859375,0.002100701443850994,0.22903744876384735,-0.738434910774231
1737749427047926500,3.822926513671875,0.03147536888718605,0.2610028386116028,-0.7483969926834106
1737749427057992400,3.832992431640625,0.10688357055187225,0.29008933901786804,-0.7754656076431274
1737749427068059400,3.843059326171875,0.22590503096580505,0.3263525366783142,-0.7953450679779053
1737749427078126300,3.853126220703125,0.37876462936401367,0.38569310307502747,-0.8061764240264893
1737749427088193500,3.863193603515625,0.504791796207428,0.49754026532173157,-0.8307566046714783
1737749427098260500,3.873260498046875,0.5515803098678589,0.6793878078460693,-0.8538762927055359
1737749427108326400,3.883326416015625,0.5156418085098267,0.9104167819023132,-0.8509886264801025
1737749427118393300,3.893393310546875,0.4040830135345459,1.1720678806304932,-0.8181465268135071
1737749427128460300,3.903460205078125,0.26881495118141174,1.3835231065750122,-0.7773362398147583
1737749427138527500,3.913527587890625,0.16347627341747284,1.5085893869400024,-0.7305998802185059
1737749427148594400,3.923594482421875,0.11968165636062622,1.5351938009262085,-0.6856188178062439
1737749427158660400,3.933660400390625,0.12329290807247162,1.5016065835952759,-0.642861545085907
1737749427168727300,3.943727294921875,0.12485112249851227,1.413287878036499,-0.6503252983093262
1737749427178794500,3.95379443359375,0.06941769272089005,1.2691885232925415,-0.7324095368385315
1737749427188861700,3.96386181640625,-0.04369368404150009,1.061499834060669,-0.8329576849937439
1737749427198928600,3.9739287109375,-0.16488216817378998,0.8673151135444641,-0.8448103666305542
1737749427208994300,3.983994384765625,-0.24776558578014374,0.7803719639778137,-0.768235445022583
1737749427219061500,3.9940615234375,-0.2617969810962677,0.8288527131080627,-0.6191686987876892
1737749427229128700,4.004128662109375,-0.2096637487411499,0.9340779185295105,-0.49013403058052063
1737749427239195600,4.014195556640625,-0.08177023380994797,1.0234096050262451,-0.3967324495315552
1737749427249262600,4.0242626953125,0.13856133818626404,1.1524957418441772,-0.27514582872390747
1737749427259328500,4.03432861328125,0.36105406284332275,1.40041184425354,-0.14897190034389496
1737749427269395700,4.044395751953125,0.46712538599967957,1.7316075563430786,-0.09143111109733582
1737749427279462700,4.054462646484375,0.41831550002098083,1.9207305908203125,-0.15010347962379456
1737749427289529600,4.064529541015625,0.3276399075984955,1.873748779296875,-0.29773688316345215
1737749427299596500,4.074596435546875,0.30280619859695435,1.6361620426177979,-0.3936370313167572
1737749427309662500,4.084662353515625,0.3317984342575073,1.3820421695709229,-0.4352918267250061
1737749427319729700,4.094729736328125,0.34019219875335693,1.1670509576797485,-0.4535086452960968
1737749427329796600,4.104796630859375,0.38183337450027466,0.8583986163139343,-0.4770453870296478
1737749427339863600,4.114863525390625,0.4966539740562439,0.5089204907417297,-0.48385003209114075
1737749427349930500,4.124930419921875,0.6274189352989197,0.2321956902742386,-0.5110169053077698
1737749427359996700,4.13499658203125,0.7376018762588501,0.07391656935214996,-0.5234208703041077
1737749427370063600,4.145063720703125,0.8104457259178162,0.05227518826723099,-0.5214975476264954
1737749427380130600,4.155130615234375,0.8111287951469421,0.1414516717195511,-0.5284843444824219
1737749427390197500,4.165197509765625,0.7450352907180786,0.29169178009033203,-0.5584779381752014
1737749427400264400,4.175264404296875,0.6246638894081116,0.45383965969085693,-0.6142125725746155
1737749427410330600,4.18533056640625,0.5268496870994568,0.6462141871452332,-0.6202672719955444
1737749427420397600,4.1953974609375,0.49418336153030396,0.9547097086906433,-0.5147903561592102
1737749427430464500,4.205464599609375,0.43702951073646545,1.318993330001831,-0.3928455412387848
1737749427440531500,4.215531494140625,0.28284528851509094,1.5690586566925049,-0.3001611530780792
1737749427450599400,4.225599365234375,0.05643105134367943,1.5806812047958374,-0.27822762727737427
1737749427460665300,4.235665283203125,-0.13107332587242126,1.3402725458145142,-0.2690868675708771
1737749427470732300,4.245732177734375,-0.18514534831047058,0.9038907289505005,-0.2946159243583679
1737749427480799500,4.255799560546875,-0.111946240067482,0.39211106300354004,-0.3223080039024353
1737749427490866400,4.265866455078125,0.025353560224175453,-0.04099004343152046,-0.2789677083492279
1737749427500933400,4.275933349609375,0.1316954493522644,-0.2986237108707428,-0.17382851243019104
1737749427510999600,4.28599951171875,0.1484760195016861,-0.4186561107635498,-0.0692395269870758
1737749427521066500,4.29606640625,0.08209886401891708,-0.5213449597358704,-0.010131996124982834
1737749427531133400,4.306133544921875,-0.027331223711371422,-0.6381807327270508,0.006910636555403471
1737749427541200400,4.316200439453125,-0.13053137063980103,-0.7242218852043152,0.017703630030155182
1737749427551267300,4.326267333984375,-0.20909489691257477,-0.6992608904838562,0.07287047803401947
1737749427561333500,4.33633349609375,-0.26834383606910706,-0.5239806771278381,0.16427336633205414
1737749427571400400,4.346400390625,-0.3021364212036133,-0.2696317434310913,0.2409156709909439
1737749427581467400,4.35646728515625,-0.3002743422985077,-0.027659324929118156,0.2870938181877136
1737749427591534300,4.366534423828125,-0.2740326225757599,0.15772944688796997,0.2867417633533478
1737749427601601300,4.376601318359375,-0.2533891201019287,0.32807081937789917,0.2741681635379791
1737749427611667500,4.38666748046875,-0.2713715732097626,0.5213457345962524,0.2668474018573761
1737749427621734400,4.396734375,-0.30951765179634094,0.6957851648330688,0.25995755195617676
1737749427631801300,4.40680126953125,-0.32235780358314514,0.7908304929733276,0.24409602582454681
1737749427641868300,4.416868408203125,-0.2939184308052063,0.8024045825004578,0.21101316809654236
1737749427651935200,4.426935302734375,-0.22702409327030182,0.7679927945137024,0.15603087842464447
1737749427662001400,4.43700146484375,-0.15054023265838623,0.7287068963050842,0.08619480580091476
1737749427672068400,4.447068359375,-0.08132175356149673,0.6870760917663574,0.004941495135426521
1737749427682135300,4.45713525390625,-0.028124311938881874,0.6524859070777893,-0.08665819466114044
1737749427692202200,4.4672021484375,0.015029283240437508,0.6341891884803772,-0.16195347905158997
1737749427702269400,4.47726953125,0.0487358458340168,0.6553589105606079,-0.21737439930438995
1737749427712335400,4.48733544921875,0.07499194890260696,0.707950234413147,-0.27087703347206116
1737749427722402300,4.49740234375,0.11024661362171173,0.7766062617301941,-0.2931322753429413
1737749427732469200,4.50746923828125,0.16300223767757416,0.8590409755706787,-0.29623085260391235
1737749427742536200,4.5175361328125,0.2400384247303009,0.9518824815750122,-0.2890491187572479
1737749427752603400,4.527603271484375,0.3311704695224762,1.0251811742782593,-0.2558474838733673
1737749427762670300,4.53767041015625,0.4315207898616791,1.07811439037323,-0.20635050535202026
1737749427772736300,4.547736328125,0.5381358861923218,1.125003695487976,-0.138693705201149
1737749427782803200,4.55780322265625,0.6424503326416016,1.1507084369659424,-0.07083529233932495
1737749427792870400,4.567870361328125,0.713329553604126,1.15438973903656,-0.019162243232131004
1737749427802937300,4.577937255859375,0.7238418459892273,1.1204049587249756,0.06119997426867485
1737749427813004300,4.58800439453125,0.7013064622879028,1.071453332901001,0.1671154946088791
1737749427823070200,4.5980703125,0.659978985786438,1.027145266532898,0.2582307457923889
1737749427833137200,4.60813720703125,0.622847855091095,0.9682963490486145,0.34094560146331787
1737749427843204400,4.618204345703125,0.5873103737831116,0.9191737771034241,0.41755223274230957
1737749427853271300,4.628271240234375,0.5382429361343384,0.9116913676261902,0.48111414909362793
1737749427863338200,4.638338134765625,0.4891880750656128,0.9238258004188538,0.538943350315094
1737749427873404200,4.648404052734375,0.4438927471637726,0.9435867071151733,0.6274311542510986
1737749427883471400,4.658471435546875,0.42244526743888855,0.9834902286529541,0.742458701133728
1737749427893538300,4.668538330078125,0.4250900447368622,1.0437778234481812,0.8252065777778625
1737749427903605200,4.678605224609375,0.45434725284576416,1.109992265701294,0.8299592137336731
1737749427913672400,4.68867236328125,0.44674554467201233,1.1444710493087769,0.7551451921463013
1737749427923738400,4.69873828125,0.3292466104030609,1.1090459823608398,0.6648041009902954
1737749427933805300,4.708805419921875,0.13718768954277039,1.0193842649459839,0.6152551770210266
1737749427943872300,4.718872314453125,-0.012651879340410233,0.9235890507698059,0.624930202960968
1737749427953939500,4.728939453125,-0.046057239174842834,0.8492535948753357,0.6819050312042236
1737749427964006400,4.73900634765625,0.05408693850040436,0.7610246539115906,0.7723146080970764
1737749427974072300,4.749072265625,0.25704723596572876,0.6407989263534546,0.8150103688240051
1737749427984139500,4.759139404296875,0.43570300936698914,0.5348551273345947,0.7183570861816406
1737749427994206500,4.76920654296875,0.4805953800678253,0.42244765162467957,0.5459032654762268
1737749428004273400,4.7792734375,0.4010123908519745,0.25972265005111694,0.4049893021583557
1737749428014340400,4.78934033203125,0.2548208236694336,0.05885932222008705,0.3128649592399597
1737749428024406500,4.799406494140625,0.08102215081453323,-0.10483533889055252,0.25104793906211853
1737749428034473500,4.809473388671875,-0.07498849183320999,-0.2160353660583496,0.20566022396087646
1737749428044540400,4.81954052734375,-0.17281119525432587,-0.30487707257270813,0.16412129998207092
1737749428054607400,4.829607421875,-0.2414618879556656,-0.3721733093261719,0.10372559726238251
1737749428064674300,4.83967431640625,-0.316313773393631,-0.43299591541290283,0.03154514357447624
1737749428074740500,4.849740478515625,-0.4102998971939087,-0.4703613817691803,-0.05757967382669449
1737749428084807400,4.859807373046875,-0.4899230897426605,-0.4718330502510071,-0.12099672853946686
1737749428094874400,4.869874267578125,-0.5550714731216431,-0.41203922033309937,-0.16367867588996887
1737749428104941300,4.87994140625,-0.605292558670044,-0.3206682801246643,-0.1849546730518341
1737749428115008300,4.89000830078125,-0.6202105283737183,-0.18372082710266113,-0.19100697338581085
1737749428125074400,4.900074462890625,-0.6035087704658508,-0.01798592507839203,-0.19236811995506287
1737749428135141400,4.910141357421875,-0.544171154499054,0.17226551473140717,-0.18929216265678406
1737749428145208300,4.920208251953125,-0.45738327503204346,0.36082395911216736,-0.18341563642024994
1737749428155275300,4.930275146484375,-0.355286180973053,0.5469488501548767,-0.17726905643939972
1737749428165342200,4.94034228515625,-0.2428227663040161,0.7247803211212158,-0.19619853794574738
1737749428175408400,4.950408447265625,-0.13938239216804504,0.8800772428512573,-0.2200242429971695
1737749428185475300,4.960475341796875,-0.06461174786090851,1.0087628364562988,-0.24618074297904968
1737749428195542300,4.970542236328125,-0.019105784595012665,1.101428508758545,-0.27834028005599976
1737749428205609200,4.980609130859375,-0.004203266929835081,1.1506242752075195,-0.3022264242172241
1737749428215676400,4.990676513671875,0.002371278591454029,1.1659446954727173,-0.324164479970932
1737749428225742300,5.000742431640625,0.012529906816780567,1.1575487852096558,-0.3532257080078125
1737749428235809300,5.010809326171875,0.035950277000665665,1.1221234798431396,-0.38702628016471863
1737749428245876200,5.020876220703125,0.07465719431638718,1.0772709846496582,-0.42156854271888733
1737749428255943400,5.030943359375,0.12201166152954102,1.0242853164672852,-0.4490414559841156
1737749428266010400,5.04101025390625,0.1568649858236313,0.96855229139328,-0.48283615708351135
1737749428276077300,5.051077392578125,0.15331152081489563,0.908112645149231,-0.5182964205741882
1737749428286143200,5.061143310546875,0.11705151945352554,0.8448665142059326,-0.5376765131950378
1737749428296210200,5.071210205078125,0.06341812014579773,0.764140248298645,-0.5385188460350037
1737749428306277400,5.08127734375,0.015964584425091743,0.6875001192092896,-0.5457248687744141
1737749428316344300,5.09134423828125,-0.027778901159763336,0.6273230314254761,-0.5814743041992188
1737749428326411300,5.101411376953125,-0.06806853413581848,0.5899924635887146,-0.629647433757782
1737749428336477200,5.111477294921875,-0.11322882026433945,0.5571439266204834,-0.6637681126594543
1737749428346544400,5.12154443359375,-0.16606353223323822,0.5158577561378479,-0.6787044405937195
1737749428356611300,5.131611328125,-0.21182064712047577,0.4716447591781616,-0.690910816192627
1737749428366678300,5.14167822265625,-0.23961259424686432,0.42859315872192383,-0.6958749294281006
1737749428376745200,5.1517451171875,-0.2634612023830414,0.39429935812950134,-0.6934365630149841
1737749428386811100,5.16181103515625,-0.28565067052841187,0.38203364610671997,-0.6917531490325928
1737749428396878300,5.17187841796875,-0.3062978684902191,0.3836296796798706,-0.7132555246353149
1737749428406945300,5.1819453125,-0.31181222200393677,0.38671255111694336,-0.7417409420013428
1737749428417012200,5.19201220703125,-0.2972780168056488,0.38670456409454346,-0.7568575739860535
1737749428427079400,5.202079345703125,-0.2853366732597351,0.39126044511795044,-0.7774912118911743
1737749428437145300,5.212145263671875,-0.2961570918560028,0.39484691619873047,-0.8117682337760925
1737749428447211500,5.22221142578125,-0.32648810744285583,0.37230297923088074,-0.8357976675033569
1737749428457278500,5.232278564453125,-0.35402756929397583,0.32774537801742554,-0.8598889112472534
1737749428467345400,5.242345458984375,-0.37988927960395813,0.28621286153793335,-0.8944863080978394
1737749428477412400,5.252412353515625,-0.3901440501213074,0.2577553689479828,-0.9310206174850464
1737749428487478500,5.262478515625,-0.38677382469177246,0.2388938069343567,-0.9521714448928833
1737749428497545500,5.27254541015625,-0.3675529658794403,0.21201051771640778,-0.9384335279464722
1737749428507612400,5.2826123046875,-0.33381977677345276,0.19724223017692566,-0.9491602182388306
1737749428517679400,5.292679443359375,-0.31059861183166504,0.20349159836769104,-0.9857370853424072
1737749428527746600,5.30274658203125,-0.31269371509552,0.22265517711639404,-1.0125130414962769
1737749428537813500,5.3128134765625,-0.3319520950317383,0.26428383588790894,-0.9989107251167297
1737749428547879400,5.32287939453125,-0.34051576256752014,0.3647758364677429,-0.9440591931343079
1737749428557946400,5.3329462890625,-0.30734848976135254,0.5240679979324341,-0.8760470747947693
1737749428568013300,5.343013427734375,-0.19329117238521576,0.696372926235199,-0.8204296231269836
1737749428578080500,5.35308056640625,-0.049204565584659576,0.8143770694732666,-0.7680484652519226
1737749428588147500,5.3631474609375,0.03183116763830185,0.856490433216095,-0.7176766395568848
1737749428598213400,5.37321337890625,0.030167490243911743,0.8626668453216553,-0.6741395592689514
1737749428608280300,5.3832802734375,-0.02737223543226719,0.8398259878158569,-0.6277509927749634
1737749428618347500,5.393347412109375,-0.10127069801092148,0.81838059425354,-0.613737165927887
1737749428628414500,5.40341455078125,-0.17852766811847687,0.803442120552063,-0.6299510598182678
1737749428638481400,5.4134814453125,-0.24467206001281738,0.7954976558685303,-0.6567602753639221
1737749428648547300,5.42354736328125,-0.294871062040329,0.7763511538505554,-0.662213921546936
1737749428658614300,5.4336142578125,-0.30347758531570435,0.7255532145500183,-0.6574620008468628
1737749428668681500,5.443681396484375,-0.27395883202552795,0.6548766493797302,-0.6576622724533081
1737749428678748700,5.453748779296875,-0.2475871592760086,0.5648330450057983,-0.6633308529853821
1737749428688815600,5.463815673828125,-0.2483312487602234,0.46156230568885803,-0.6837796568870544
1737749428698881300,5.47388134765625,-0.2908203899860382,0.3580406904220581,-0.7225603461265564
1737749428708948700,5.48394873046875,-0.3588854670524597,0.26706552505493164,-0.7610307931900024
1737749428719015700,5.494015625,-0.4264969825744629,0.19642490148544312,-0.791256308555603
1737749428729082600,5.50408251953125,-0.4694378077983856,0.15124890208244324,-0.8063945174217224
1737749428739149600,5.514149658203125,-0.477032333612442,0.13854242861270905,-0.7959911227226257
1737749428749216500,5.524216552734375,-0.45395204424858093,0.1459883600473404,-0.768399178981781
1737749428759282700,5.53428271484375,-0.4264775514602661,0.1767342984676361,-0.7353941202163696
1737749428769349600,5.544349609375,-0.4233717620372772,0.23022308945655823,-0.7209022641181946
1737749428779416600,5.55441650390625,-0.4561161398887634,0.2926960587501526,-0.722582995891571
1737749428789483500,5.5644833984375,-0.4968861937522888,0.36958444118499756,-0.7398259043693542
1737749428799550500,5.574550537109375,-0.5082403421401978,0.442548930644989,-0.7480065822601318
1737749428809616600,5.58461669921875,-0.4969112277030945,0.49617594480514526,-0.7574996948242188
1737749428819683600,5.59468359375,-0.47168150544166565,0.5261141061782837,-0.756218433380127
1737749428829750500,5.60475048828125,-0.44192761182785034,0.5252571105957031,-0.7474361062049866
1737749428839817500,5.6148173828125,-0.4246934950351715,0.4868793785572052,-0.7410528063774109
1737749428849884400,5.624884521484375,-0.4109742343425751,0.4228900074958801,-0.7314164042472839
1737749428859950600,5.63495068359375,-0.4022004306316376,0.3444750905036926,-0.7227382659912109
1737749428870017500,5.645017578125,-0.4088679254055023,0.27577513456344604,-0.7260312438011169
1737749428880084500,5.65508447265625,-0.4313519299030304,0.22155742347240448,-0.7323392033576965
1737749428890151400,5.6651513671875,-0.4704034626483917,0.1941673457622528,-0.7336031198501587
1737749428900218400,5.67521826171875,-0.5103601813316345,0.18349899351596832,-0.7412312030792236
1737749428910285600,5.68528564453125,-0.5459160804748535,0.20545728504657745,-0.7479285597801208
1737749428920351500,5.6953515625,-0.5739125609397888,0.25792181491851807,-0.7545318603515625
1737749428930418400,5.70541845703125,-0.594520628452301,0.321580171585083,-0.7587324380874634
1737749428940485400,5.7154853515625,-0.6038557887077332,0.3787004351615906,-0.7406626343727112
1737749428950552600,5.725552490234375,-0.5935860872268677,0.4274858236312866,-0.7142462134361267
1737749428960619500,5.73561962890625,-0.5729016065597534,0.47402510046958923,-0.6846028566360474
1737749428970685400,5.745685546875,-0.5610449314117432,0.5000787973403931,-0.6697275042533875
1737749428980752400,5.75575244140625,-0.5600364208221436,0.49298733472824097,-0.6579270362854004
1737749428990819300,5.7658193359375,-0.5571103692054749,0.4678944945335388,-0.6287081241607666
1737749429000886500,5.775886474609375,-0.556880533695221,0.45436349511146545,-0.592503011226654
1737749429010953500,5.785953369140625,-0.5603570342063904,0.45601627230644226,-0.5804694890975952
1737749429021020400,5.7960205078125,-0.5607985854148865,0.45293205976486206,-0.5892267823219299
1737749429031086300,5.80608642578125,-0.5457626581192017,0.44369274377822876,-0.5956798791885376
1737749429041153500,5.816153564453125,-0.5217734575271606,0.4241749942302704,-0.5824578404426575
1737749429051220500,5.826220458984375,-0.5023712515830994,0.39406901597976685,-0.5629515051841736
1737749429061287400,5.836287353515625,-0.48729801177978516,0.36394891142845154,-0.5245383381843567
1737749429071354400,5.846354248046875,-0.46307656168937683,0.34863415360450745,-0.4704258441925049
1737749429081420500,5.856420654296875,-0.43357354402542114,0.3430742621421814,-0.41194653511047363
1737749429091487500,5.866487548828125,-0.39959481358528137,0.3372914791107178,-0.347284734249115
1737749429101554400,5.876554443359375,-0.36401844024658203,0.325210303068161,-0.2712533473968506
1737749429111621400,5.886621337890625,-0.31955990195274353,0.3008945882320404,-0.19635726511478424
1737749429121688600,5.8966884765625,-0.2715145945549011,0.28314754366874695,-0.14470738172531128
1737749429131754500,5.90675439453125,-0.2222389280796051,0.2727316617965698,-0.089829221367836
1737749429141821400,5.916821533203125,-0.16760604083538055,0.2792079448699951,-0.041547976434230804
1737749429151888600,5.926888671875,-0.11174090951681137,0.2771351933479309,-0.007413174957036972
1737749429161955600,5.93695556640625,-0.07672566920518875,0.2530125379562378,0.01816914975643158
1737749429172022500,5.9470224609375,-0.07115407288074493,0.23809006810188293,0.03523654863238335
1737749429182089500,5.95708935546875,-0.07834380865097046,0.25382909178733826,0.04361166059970856
1737749429192155600,5.96715576171875,-0.0831095352768898,0.294345885515213,0.02256842516362667
1737749429202222600,5.97722265625,-0.06373210996389389,0.334585964679718,-0.012278770096600056
1737749429212289500,5.98728955078125,-0.04001346230506897,0.3716638386249542,-0.030187463387846947
1737749429222356500,5.9973564453125,-0.03871410712599754,0.4158683121204376,-0.046789877116680145
1737749429232423400,6.00742333984375,-0.056961022317409515,0.4789162576198578,-0.05291168391704559
1737749429242489600,6.017489501953125,-0.07826124876737595,0.5623544454574585,-0.03218350186944008
1737749429252556500,6.027556640625,-0.09661228954792023,0.6308482885360718,0.00270683690905571
1737749429262623500,6.03762353515625,-0.11085887253284454,0.6658959984779358,0.025102689862251282
1737749429272690400,6.0476904296875,-0.15043210983276367,0.6513508558273315,0.015836220234632492
1737749429282757600,6.057757568359375,-0.2156771570444107,0.6021984815597534,-0.03363252803683281
1737749429292824600,6.067824462890625,-0.29616880416870117,0.5337288975715637,-0.09023508429527283
1737749429302890500,6.077890380859375,-0.3756130337715149,0.4633764326572418,-0.15264387428760529
1737749429312957400,6.08795751953125,-0.42651429772377014,0.38493916392326355,-0.21067042648792267
1737749429323024400,6.0980244140625,-0.45045745372772217,0.3132796287536621,-0.2718355059623718
1737749429333091600,6.108091552734375,-0.44892558455467224,0.226393461227417,-0.32594773173332214
1737749429343158500,6.118158447265625,-0.4397219717502594,0.12624607980251312,-0.3585429787635803
1737749429353224400,6.128224365234375,-0.42223700881004333,0.03320029750466347,-0.37572169303894043
1737749429363291400,6.13829150390625,-0.40556028485298157,-0.023188143968582153,-0.3865906000137329
1737749429373358600,6.148358642578125,-0.38290342688560486,-0.03935752436518669,-0.40419700741767883
1737749429383425500,6.158425537109375,-0.3632937967777252,-0.03142370283603668,-0.43548861145973206
1737749429393492500,6.168492431640625,-0.36085939407348633,-0.03243730217218399,-0.49075907468795776
1737749429403559400,6.178559326171875,-0.37483859062194824,-0.06196030601859093,-0.5516589283943176
1737749429413625600,6.18862548828125,-0.39487382769584656,-0.09393768012523651,-0.5934433937072754
1737749429423692500,6.198692626953125,-0.39684268832206726,-0.1181412860751152,-0.6054893732070923
1737749429433759500,6.208759521484375,-0.3750354051589966,-0.14515799283981323,-0.5903239846229553
1737749429443826400,6.218826416015625,-0.3405629098415375,-0.18718373775482178,-0.5869588255882263
1737749429453897700,6.228897705078125,-0.3226209282875061,-0.2624119222164154,-0.5950194001197815
1737749429463963600,6.238963623046875,-0.3208501935005188,-0.35559406876564026,-0.5986341238021851
1737749429474030800,6.24903076171875,-0.32035163044929504,-0.44729867577552795,-0.6200893521308899
1737749429484097800,6.259097900390625,-0.2910321056842804,-0.5281559824943542,-0.6616370677947998
1737749429494165000,6.2691650390625,-0.2443373054265976,-0.6306051015853882,-0.7364444732666016
1737749429504232000,6.27923193359375,-0.21793925762176514,-0.7763484716415405,-0.8352759480476379
1737749429514299000,6.289298828125,-0.24353249371051788,-0.9091480374336243,-0.9057043194770813
1737749429524364800,6.29936474609375,-0.2918739318847656,-0.9504486322402954,-0.8975430727005005
1737749429534432000,6.309431884765625,-0.3214219808578491,-0.8895983099937439,-0.82016521692276
1737749429544499000,6.3194990234375,-0.3086630403995514,-0.7522236704826355,-0.7271934151649475
1737749429554566000,6.32956591796875,-0.2603117525577545,-0.5623824000358582,-0.6521058678627014
1737749429564632800,6.3396328125,-0.18708918988704681,-0.3599424660205841,-0.5718262195587158
1737749429574699800,6.34969970703125,-0.09705837070941925,-0.18285903334617615,-0.4682641327381134
1737749429584766000,6.359765869140625,0.002642654813826084,-0.0677228569984436,-0.365516722202301
1737749429594833000,6.3698330078125,0.11482805013656616,0.0019148128340020776,-0.25498753786087036
1737749429604899800,6.37989990234375,0.21588222682476044,0.017059676349163055,-0.13587288558483124
1737749429614966800,6.389966796875,0.2798806428909302,0.005785184912383556,-0.06445009261369705
1737749429625033700,6.40003369140625,0.3038485646247864,-0.046596795320510864,-0.044073984026908875
1737749429635100000,6.410099853515625,0.29520902037620544,-0.1166887953877449,-0.09172885119915009
1737749429645166800,6.420166748046875,0.2724056839942932,-0.18843355774879456,-0.18594084680080414
1737749429655233800,6.43023388671875,0.2556551992893219,-0.2596920132637024,-0.2896350026130676
1737749429665300700,6.44030078125,0.23739470541477203,-0.31755533814430237,-0.3724382817745209
1737749429675368000,6.450367919921875,0.2247268557548523,-0.3614029288291931,-0.39930957555770874
1737749429685435000,6.460434814453125,0.22952081263065338,-0.36624109745025635,-0.3505995571613312
1737749429695500800,6.470500732421875,0.2657533884048462,-0.313968300819397,-0.26695525646209717
1737749429705567700,6.480567626953125,0.336940735578537,-0.22588346898555756,-0.18195275962352753
1737749429715635000,6.490635009765625,0.4114226996898651,-0.14253078401088715,-0.13429921865463257
1737749429725702000,6.500701904296875,0.4757407009601593,-0.05212392285466194,-0.09703414142131805
1737749429735768800,6.510768798828125,0.519050121307373,0.03421895578503609,-0.05944415181875229
1737749429745835800,6.520835693359375,0.5394930243492126,0.10804791003465652,-0.03605733811855316
1737749429755901700,6.530901611328125,0.5385715961456299,0.14474493265151978,-0.001654355670325458
1737749429765969000,6.540968994140625,0.5311365723609924,0.1367115080356598,0.005543103441596031
1737749429776035800,6.551035888671875,0.534760594367981,0.10800689458847046,-0.027353061363101006
1737749429786102800,6.561102783203125,0.5466295480728149,0.07537464797496796,-0.07197193056344986
1737749429796169700,6.571169677734375,0.5608145594596863,0.03121810592710972,-0.08731519430875778
1737749429806236000,6.58123583984375,0.5625306963920593,-0.033010680228471756,-0.10047733783721924
1737749429816302800,6.591302734375,0.5722102522850037,-0.09555874764919281,-0.10638023167848587
1737749429826369800,6.601369873046875,0.6131821870803833,-0.13657888770103455,-0.09887038916349411
1737749429836436700,6.611436767578125,0.6651146411895752,-0.17740941047668457,-0.057060357183218
1737749429846503700,6.621503662109375,0.7044588327407837,-0.21193595230579376,-0.0019446401856839657
1737749429856570600,6.631570556640625,0.7196404337882996,-0.2188553810119629,0.043050266802310944
1737749429866636800,6.64163671875,0.7219560742378235,-0.2251920998096466,0.09529855847358704
1737749429876703700,6.651703857421875,0.7261103391647339,-0.2867308259010315,0.1335037350654602
1737749429886770700,6.661770751953125,0.7291674017906189,-0.37975504994392395,0.15340127050876617
1737749429896837600,6.671837646484375,0.7372636795043945,-0.4780621826648712,0.18671661615371704
1737749429906904800,6.68190478515625,0.7485677003860474,-0.595338761806488,0.22842279076576233
1737749429916972000,6.691971923828125,0.7433534860610962,-0.7196556329727173,0.27795490622520447
1737749429927037700,6.70203759765625,0.7164470553398132,-0.8294729590415955,0.34566766023635864
1737749429937105000,6.71210498046875,0.6769550442695618,-0.9073043465614319,0.4009825885295868
1737749429947171800,6.722171875,0.6299808621406555,-0.9515407681465149,0.43709370493888855
1737749429957239000,6.732239013671875,0.5996557474136353,-0.9749334454536438,0.4666534662246704
1737749429967306000,6.742305908203125,0.5775184631347656,-0.9786437749862671,0.5140787959098816
1737749429977372000,6.752371826171875,0.5639773607254028,-0.963712751865387,0.5709015727043152
1737749429987438800,6.76243896484375,0.5568182468414307,-0.9554631114006042,0.5803278088569641
1737749429997505800,6.772505859375,0.5219148397445679,-0.9925745129585266,0.5716400742530823
1737749430007573000,6.782572998046875,0.46175751090049744,-1.0320031642913818,0.5976474285125732
1737749430017640000,6.792639892578125,0.38874003291130066,-1.0248041152954102,0.6778035163879395
1737749430027707000,6.802706787109375,0.353940486907959,-0.9681195020675659,0.8024088144302368
1737749430037772800,6.812772705078125,0.4091273248195648,-0.9321972131729126,0.887118399143219
1737749430047840000,6.822840087890625,0.49349600076675415,-1.0150787830352783,0.8958314657211304
1737749430057907000,6.832906982421875,0.5287588834762573,-1.1514629125595093,0.862247109413147
1737749430067974000,6.842973876953125,0.4946584701538086,-1.2358273267745972,0.813224732875824
1737749430078040800,6.853040771484375,0.4164249002933502,-1.2635128498077393,0.7630243897438049
1737749430088107800,6.863107666015625,0.3525753617286682,-1.2689722776412964,0.7320518493652344
1737749430098174000,6.873174072265625,0.3147592842578888,-1.2532590627670288,0.7050125002861023
1737749430108241000,6.883240966796875,0.28280240297317505,-1.2087353467941284,0.6573696136474609
1737749430118307800,6.893307861328125,0.2443423718214035,-1.158353567123413,0.5979568958282471
1737749430128374800,6.903374755859375,0.19501769542694092,-1.0963672399520874,0.5645757913589478
1737749430138441700,6.913441650390625,0.16225814819335938,-0.9941700100898743,0.5484178066253662
1737749430148508700,6.9235087890625,0.16755437850952148,-0.8647140264511108,0.5462409853935242
1737749430158574800,6.933574951171875,0.19916610419750214,-0.7259942293167114,0.5389782786369324
1737749430168641800,6.943641845703125,0.2319331020116806,-0.6000956892967224,0.5412011742591858
1737749430178708700,6.953708740234375,0.24657702445983887,-0.5041038990020752,0.5479360818862915
1737749430188775700,6.963775634765625,0.23424206674098969,-0.44633540511131287,0.5585535764694214
1737749430198843000,6.9738427734375,0.18470220267772675,-0.41793307662010193,0.5542682409286499
1737749430208908800,6.98390869140625,0.10302624851465225,-0.4054628014564514,0.5460036993026733
1737749430218975700,6.993975830078125,0.01932709291577339,-0.3718547821044922,0.5497755408287048
1737749430229042700,7.004042724609375,-0.035056520253419876,-0.32669582962989807,0.5590528845787048
1737749430239109600,7.014109619140625,-0.038964178413152695,-0.3037433624267578,0.5698115229606628
1737749430249176800,7.0241767578125,0.0011741877533495426,-0.30698949098587036,0.5949395298957825
1737749430259243800,7.034243896484375,0.055990565568208694,-0.3285200893878937,0.6240236163139343
1737749430269309700,7.044309814453125,0.10646412521600723,-0.3516421914100647,0.6658110618591309
1737749430279376600,7.054376708984375,0.14442002773284912,-0.36807042360305786,0.7149085402488708
1737749430289443800,7.06444384765625,0.1627465784549713,-0.36570021510124207,0.764122724533081
1737749430299510800,7.0745107421875,0.16998371481895447,-0.3697192072868347,0.8100736737251282
1737749430309578000,7.084577880859375,0.16961832344532013,-0.37713822722435,0.8537383079528809
1737749430319645000,7.09464501953125,0.16569708287715912,-0.3809657096862793,0.8903748989105225
1737749430329710800,7.1047109375,0.16208744049072266,-0.3773922920227051,0.9422807097434998
1737749430339778000,7.114778076171875,0.1778578758239746,-0.37749695777893066,0.9940016865730286
1737749430349845000,7.124844970703125,0.23060418665409088,-0.36462774872779846,1.0155221223831177
1737749430359912000,7.134911865234375,0.3009984493255615,-0.3978043496608734,1.0033254623413086
1737749430369979000,7.144978759765625,0.35808223485946655,-0.4996553659439087,1.0235636234283447
1737749430380045000,7.155045166015625,0.4181876480579376,-0.6248015761375427,1.0880483388900757
1737749430390112000,7.165112060546875,0.5190775394439697,-0.7021716833114624,1.1078561544418335
1737749430400179000,7.175178955078125,0.5737442374229431,-0.7474411725997925,1.0639415979385376
1737749430410246000,7.185245849609375,0.5048788785934448,-0.7861986756324768,1.0037875175476074
1737749430420312800,7.195312744140625,0.34970393776893616,-0.7846247553825378,0.9620903730392456
1737749430430379800,7.2053798828125,0.19966650009155273,-0.6970608234405518,0.9280644655227661
1737749430440446000,7.215446044921875,0.12912575900554657,-0.5457506775856018,0.9027546048164368
1737749430450510000,7.225510009765625,0.15447506308555603,-0.3992762863636017,0.8847572207450867
1737749430460577000,7.235576904296875,0.2156798243522644,-0.28691086173057556,0.8679444193840027
1737749430470644200,7.245644287109375,0.28192463517189026,-0.2024894505739212,0.8298662900924683
1737749430480711200,7.255711181640625,0.3541460931301117,-0.12379331141710281,0.7692950963973999
1737749430490777000,7.265777099609375,0.42910102009773254,-0.0658237561583519,0.7135316729545593
1737749430500844000,7.275843994140625,0.4755050241947174,-0.025490978732705116,0.6810975670814514
1737749430510911200,7.2859111328125,0.47983452677726746,0.025592444464564323,0.6710231304168701
1737749430520978200,7.295978271484375,0.44409942626953125,0.0950532779097557,0.7003775238990784
1737749430531045000,7.306045166015625,0.3705791234970093,0.15734034776687622,0.7640526294708252
1737749430541112000,7.316112060546875,0.2867526710033417,0.18089734017848969,0.837952196598053
1737749430551178200,7.32617822265625,0.22631968557834625,0.14646214246749878,0.9202321171760559
1737749430561245200,7.3362451171875,0.18403774499893188,0.06220851466059685,0.9849381446838379
1737749430571312000,7.34631201171875,0.1691139191389084,-0.06048677861690521,1.0379939079284668
1737749430581379000,7.356379150390625,0.1812659204006195,-0.20767676830291748,1.097451090812683
1737749430591446300,7.3664462890625,0.20136427879333496,-0.355314701795578,1.1322476863861084
1737749430601513200,7.37651318359375,0.2112312763929367,-0.5078940987586975,1.14116632938385
1737749430611579100,7.3865791015625,0.2161453515291214,-0.653562068939209,1.144598126411438
1737749430621646000,7.39664599609375,0.23942190408706665,-0.7578200697898865,1.1222939491271973
1737749430631713000,7.406713134765625,0.2591676414012909,-0.8082459568977356,1.079000473022461
1737749430641780200,7.4167802734375,0.26768550276756287,-0.8111162781715393,1.0373982191085815
1737749430651847200,7.42684716796875,0.24835175275802612,-0.7534663081169128,1.0142390727996826
1737749430661913000,7.4369130859375,0.21438419818878174,-0.655342161655426,0.9804182648658752
1737749430671980000,7.44697998046875,0.19676978886127472,-0.538047194480896,0.9603774547576904
1737749430682047200,7.457047119140625,0.2151338756084442,-0.4205054044723511,0.9416404962539673
1737749430692114200,7.4671142578125,0.24670912325382233,-0.3075527548789978,0.93986976146698
1737749430702181000,7.47718115234375,0.27270716428756714,-0.22416278719902039,0.9481108784675598
1737749430712248000,7.487248046875,0.3100052773952484,-0.1644110530614853,0.969376802444458
1737749430722314200,7.497314208984375,0.3593706786632538,-0.12008246779441833,0.9731621742248535
1737749430732381200,7.507381103515625,0.39381280541419983,-0.09863682836294174,0.9496914744377136
1737749430742448000,7.5174482421875,0.4097614288330078,-0.1149822473526001,0.933074414730072
1737749430752515000,7.52751513671875,0.40580663084983826,-0.1475585699081421,0.9223434925079346
1737749430762582000,7.53758203125,0.3933747112751007,-0.19160164892673492,0.9042102694511414
1737749430772649000,7.54764892578125,0.3646003305912018,-0.2530706226825714,0.8956112265586853
1737749430782715100,7.557715087890625,0.3348701298236847,-0.32886096835136414,0.8937709927558899
1737749430792782000,7.567781982421875,0.29609158635139465,-0.41317373514175415,0.894598662853241
1737749430802849000,7.57784912109375,0.25852927565574646,-0.4871222674846649,0.8883548974990845
1737749430812916000,7.587916015625,0.2196037322282791,-0.5468026399612427,0.8744513392448425
1737749430822983000,7.59798291015625,0.1659783124923706,-0.5896238684654236,0.8592609167098999
1737749430833049000,7.608049072265625,0.10421694815158844,-0.6101731061935425,0.8351151347160339
1737749430843116000,7.618115966796875,0.030839938670396805,-0.6017452478408813,0.8198296427726746
1737749430853183000,7.628182861328125,-0.04399861767888069,-0.5635470151901245,0.8175835013389587
1737749430863250000,7.63825,-0.09269557893276215,-0.5069193840026855,0.8228174448013306
1737749430873317000,7.648317138671875,-0.08990512043237686,-0.44453802704811096,0.8324711322784424
1737749430883384300,7.65838427734375,-0.047264449298381805,-0.3915499150753021,0.8404890894889832
1737749430893450000,7.668449951171875,0.03225008025765419,-0.35704201459884644,0.8414962887763977
1737749430903517000,7.678516845703125,0.14761954545974731,-0.3406981825828552,0.8111935257911682
1737749430913584000,7.688584228515625,0.2959272563457489,-0.3114423155784607,0.7405819296836853
1737749430923651300,7.6986513671875,0.43952038884162903,-0.2741468548774719,0.6766077876091003
1737749430933718300,7.70871826171875,0.5309155583381653,-0.23940539360046387,0.5457320213317871
1737749430943785200,7.71878515625,0.5776902437210083,-0.24050049483776093,0.43884819746017456
1737749430953851100,7.72885107421875,0.6409704089164734,-0.2194647192955017,0.39625120162963867
1737749430963918300,7.73891845703125,0.6930416226387024,-0.18828068673610687,0.35002565383911133
1737749430973985300,7.7489853515625,0.7252416014671326,-0.1775532215833664,0.29628732800483704
1737749430984052200,7.75905224609375,0.7327181696891785,-0.20591402053833008,0.41397401690483093
1737749430994119200,7.769119140625,0.7464832663536072,-0.23678751289844513,0.6069666147232056
1737749431004185000,7.77918505859375,0.7852910757064819,-0.27773788571357727,0.6955638527870178
1737749431014252300,7.789252197265625,0.8540286421775818,-0.33671677112579346,0.7462331652641296
1737749431024319200,7.7993193359375,0.8794101476669312,-0.3154040277004242,0.8166658282279968
1737749431034386200,7.80938623046875,0.8122694492340088,-0.166190043091774,0.9181575179100037
1737749431044453000,7.819453125,0.661095917224884,0.07549156248569489,1.003235101699829
1737749431054520000,7.82952001953125,0.48337626457214355,0.3397253453731537,1.0489221811294556
1737749431064586200,7.839586181640625,0.324195921421051,0.6106271743774414,1.0757554769515991
1737749431074653200,7.849653076171875,0.19259661436080933,0.8819012641906738,1.0414624214172363
1737749431084720000,7.85972021484375,0.07216793298721313,1.118886947631836,0.9173082709312439
1737749431094787000,7.869787109375,-0.048761945217847824,1.260026216506958,0.8670674562454224
1737749431104854000,7.87985400390625,-0.14928455650806427,1.2825448513031006,0.867087721824646
1737749431114921200,7.889921142578125,-0.21655280888080597,1.159691333770752,0.7518239617347717
1737749431124987100,7.899987060546875,-0.22985689342021942,0.913415789604187,0.6053295731544495
1737749431135054000,7.91005419921875,-0.20010432600975037,0.5884190201759338,0.48104384541511536
1737749431145121000,7.92012109375,-0.16390052437782288,0.20747409760951996,0.3614040017127991
1737749431155188000,7.93018798828125,-0.09449374675750732,-0.19924785196781158,0.21233490109443665
1737749431165255200,7.940255126953125,0.007555121555924416,-0.5870344638824463,0.08355215191841125
1737749431175321000,7.950321044921875,0.08905131369829178,-0.8712843060493469,0.03572950139641762
1737749431185388000,7.960387939453125,0.0987342968583107,-1.013086199760437,-0.03723711520433426
1737749431195455000,7.970455078125,0.06219892576336861,-1.0553401708602905,-0.1429920494556427
1737749431205522200,7.980522216796875,0.02713494747877121,-1.03123939037323,-0.2749578058719635
1737749431215589000,7.990589111328125,0.028681179508566856,-0.9595465064048767,-0.34506550431251526
1737749431225656000,8.000656005859375,0.034502316266298294,-0.866416871547699,-0.326362669467926
1737749431235722000,8.010721923828125,-0.006482933182269335,-0.7876783609390259,-0.28070223331451416
1737749431245789000,8.020788818359375,-0.06460775434970856,-0.7658271193504333,-0.2798367142677307
1737749431255856000,8.030856201171876,-0.03651779890060425,-0.7751449942588806,-0.2987518012523651
1737749431265923000,8.040923095703125,0.04959658160805702,-0.5834216475486755,-0.3630327880382538
1737749431275990000,8.050989990234376,0.09202579408884048,-0.12997397780418396,-0.26442578434944153
1737749431286057200,8.06105712890625,-0.029761623591184616,0.5849372148513794,-0.173323854804039
1737749431296123100,8.071123046875,-0.3052392601966858,1.4512001276016235,-0.14139893651008606
1737749431306190000,8.081190185546875,-0.6583062410354614,2.115612745285034,-0.2548826336860657
1737749431316257300,8.09125732421875,-0.8436819911003113,2.368622303009033,-0.21329230070114136
1737749431326324200,8.10132421875,-0.8064874410629272,2.1069231033325195,-0.28066015243530273
1737749431336391200,8.11139111328125,-0.6694097518920898,1.4676811695098877,-0.30760470032691956
1737749431346457000,8.12145703125,-0.5276364088058472,0.7294123768806458,-0.35283687710762024
1737749431356524300,8.131524169921875,-0.3514461815357208,-0.013157080858945847,-0.46696051955223083
1737749431366591200,8.14159130859375,-0.08865769952535629,-0.8083452582359314,-0.5701870322227478
1737749431376658200,8.151658203125,0.1797971874475479,-1.4179096221923828,-0.563511848449707
1737749431386725000,8.16172509765625,0.40108776092529297,-1.638759970664978,-0.30550211668014526
1737749431396792000,8.1717919921875,0.650557279586792,-1.4503356218338013,-0.05308558791875839
1737749431406858200,8.181858154296876,0.7953277826309204,-0.8023145794868469,0.2257087528705597
1737749431416925200,8.19192529296875,0.6908043026924133,-0.029754167422652245,0.38830432295799255
1737749431426992000,8.2019921875,0.5247268676757812,0.3809279203414917,0.4225195646286011
1737749431437059000,8.21205908203125,0.4417550265789032,0.3814815878868103,0.40768787264823914
1737749431447125500,8.22212548828125,0.44745367765426636,0.1225442886352539,0.4167711138725281
1737749431457192400,8.2321923828125,0.5155121088027954,-0.15234079957008362,0.4243563413619995
1737749431467258400,8.24225830078125,0.6195250153541565,-0.3266122043132782,0.429286390542984
1737749431477325300,8.2523251953125,0.7185224294662476,-0.39191532135009766,0.45603811740875244
1737749431487392500,8.262392578125,0.7556008696556091,-0.39475876092910767,0.4860402047634125
1737749431497459500,8.27245947265625,0.7466752529144287,-0.4162909686565399,0.5317277908325195
1737749431507526400,8.2825263671875,0.758906364440918,-0.48900458216667175,0.6086180806159973
1737749431517592300,8.29259228515625,0.7937232255935669,-0.6338051557540894,0.6595065593719482
1737749431527659500,8.302659423828125,0.8451730608940125,-0.7899870276451111,0.7283809185028076
1737749431537726500,8.3127265625,0.8696917295455933,-0.8908582925796509,0.772422194480896
1737749431547793400,8.32279345703125,0.8491299748420715,-0.9193397164344788,0.7926139831542969
1737749431557860400,8.3328603515625,0.7962833046913147,-0.9030243754386902,0.7894970178604126
1737749431567927300,8.34292724609375,0.7549941539764404,-0.8536243438720703,0.8296612501144409
1737749431577993500,8.352993408203124,0.7289546132087708,-0.8017235994338989,0.8523300290107727
1737749431588060400,8.363060302734375,0.7445367574691772,-0.7432522773742676,0.8570870161056519
1737749431598127400,8.37312744140625,0.7711806297302246,-0.6082484126091003,0.9339130520820618
1737749431608194300,8.3831943359375,0.7393867373466492,-0.40933743119239807,1.0209776163101196
1737749431618261200,8.39326123046875,0.6360126733779907,-0.21635067462921143,1.036385416984558
1737749431628328400,8.403328369140626,0.5423167943954468,-0.05726755037903786,1.0130174160003662
1737749431638394400,8.413394287109375,0.49415725469589233,0.03508608043193817,0.998528003692627
1737749431648461300,8.42346142578125,0.478415846824646,-0.0241940189152956,0.992771327495575
1737749431658528300,8.4335283203125,0.4892386794090271,-0.2640247344970703,0.9576796293258667
1737749431668595200,8.44359521484375,0.5670157670974731,-0.5895999073982239,0.8982791900634766
1737749431678662400,8.453662353515625,0.6855767369270325,-0.9105499386787415,0.8297525644302368
1737749431688728300,8.463728271484374,0.7675725817680359,-1.1114747524261475,0.7711912393569946
1737749431698795300,8.473795166015625,0.7729143500328064,-1.1554372310638428,0.7179104685783386
1737749431708862200,8.4838623046875,0.7333685159683228,-1.1085420846939087,0.7071102857589722
1737749431718929400,8.493929443359375,0.6784823536872864,-1.0023994445800781,0.7169815301895142
1737749431728996400,8.503996337890625,0.6236057877540588,-0.8571453094482422,0.7177644968032837
1737749431739063300,8.514063232421876,0.5677137970924377,-0.6942005753517151,0.6997202634811401
1737749431749129200,8.524129150390625,0.5317022204399109,-0.5104504823684692,0.7329698204994202
1737749431759196200,8.534196044921876,0.5192878842353821,-0.30754610896110535,0.8004738092422485
1737749431769263400,8.544263427734375,0.5321749448776245,-0.10745003074407578,0.8438311219215393
1737749431779330300,8.554330322265624,0.5581474304199219,0.042634014040231705,0.8494687676429749
1737749431789397500,8.5643974609375,0.5755322575569153,0.16271115839481354,0.8600207567214966
1737749431799463200,8.574463134765624,0.5693764090538025,0.2849081754684448,0.8776705861091614
1737749431809530400,8.5845302734375,0.5327890515327454,0.3765619099140167,0.8656045794487
1737749431819597600,8.59459765625,0.4947303831577301,0.38328826427459717,0.8373452425003052
1737749431829664500,8.60466455078125,0.48146915435791016,0.3118383288383484,0.8017257452011108
1737749431839731500,8.6147314453125,0.49268054962158203,0.21300894021987915,0.778632402420044
1737749431849798400,8.62479833984375,0.4943404793739319,0.1335255652666092,0.7490747570991516
1737749431859864600,8.634864501953125,0.486633837223053,0.09114162623882294,0.7063736319541931
1737749431869931500,8.644931640625,0.4900597333908081,0.06863392144441605,0.684121310710907
1737749431879998500,8.65499853515625,0.4695294201374054,0.07478262484073639,0.6684629917144775
1737749431890065400,8.6650654296875,0.42094483971595764,0.1004168838262558,0.660653829574585
1737749431900132400,8.67513232421875,0.3738771975040436,0.1308901011943817,0.6434807181358337
1737749431910199300,8.68519921875,0.36562246084213257,0.1691378951072693,0.6009612083435059
1737749431920265500,8.695265380859375,0.3736121952533722,0.20150408148765564,0.5574344992637634
1737749431930332400,8.70533251953125,0.3624783158302307,0.22051745653152466,0.5195664763450623
1737749431940399400,8.7153994140625,0.31552866101264954,0.23197944462299347,0.4657194912433624
1737749431950466300,8.72546630859375,0.26566869020462036,0.22582194209098816,0.4166185259819031
1737749431960533500,8.735533447265626,0.23281674087047577,0.1904011070728302,0.3450644612312317
1737749431970599400,8.745599365234375,0.21212823688983917,0.14501285552978516,0.3139137327671051
1737749431980666400,8.755666259765626,0.17916256189346313,0.10113993287086487,0.2527180016040802
1737749431990733300,8.7657333984375,0.13160276412963867,0.0734340026974678,0.21910838782787323
1737749432000800300,8.77580029296875,0.09411025047302246,0.048761412501335144,0.20821045339107513
1737749432010867500,8.785867431640625,0.06883552670478821,-0.00917166005820036,0.16688352823257446
1737749432020934400,8.795934326171874,0.06830235570669174,-0.11928990483283997,0.06011926382780075
1737749432031000300,8.806000244140625,0.10213222354650497,-0.22799189388751984,0.029757630079984665
1737749432041067300,8.8160673828125,0.12343085557222366,-0.2328854501247406,0.09442823380231857
1737749432051134500,8.826134521484375,0.062197860330343246,-0.15785780549049377,0.14949281513690948
1737749432061201400,8.836201416015625,-0.04513552039861679,-0.11996821314096451,0.16283579170703888
1737749432071268400,8.846268310546876,-0.11425866186618805,-0.15775340795516968,0.20928025245666504
1737749432081334300,8.856334228515625,-0.09787250310182571,-0.27578631043434143,0.12975773215293884
1737749432091401200,8.866401123046876,0.018248245120048523,-0.4548599123954773,0.03973755985498428
1737749432101468400,8.876468505859375,0.1722085177898407,-0.6273882985115051,0.007785485126078129
1737749432111535400,8.886535400390626,0.23318877816200256,-0.6874564290046692,0.01031495537608862
1737749432121602300,8.896602294921875,0.14464160799980164,-0.6268900036811829,-0.009738913737237453
1737749432131669200,8.906669189453124,0.028293956071138382,-0.5192317366600037,-0.017889251932501793
1737749432141735400,8.9167353515625,0.028064923360943794,-0.4254298508167267,0.006653907708823681
1737749432151802400,8.92680224609375,0.14930719137191772,-0.34633609652519226,0.06493745744228363
1737749432161869300,8.936869384765625,0.2803640067577362,-0.2709401547908783,0.12924639880657196
1737749432171936300,8.946936279296875,0.29211682081222534,-0.12650281190872192,0.14009079337120056
1737749432182003200,8.957003173828125,0.16273805499076843,0.15303589403629303,0.16691787540912628
1737749432192069400,8.9670693359375,0.0046538738533854485,0.5616329908370972,0.26318663358688354
1737749432202136300,8.97713623046875,-0.13494689762592316,0.948239266872406,0.3624791204929352
1737749432212203300,8.987203369140625,-0.27007755637168884,1.190609335899353,0.41468319296836853
1737749432222270500,8.9972705078125,-0.39375048875808716,1.2725094556808472,0.4596877098083496
1737749432232337400,9.00733740234375,-0.47552311420440674,1.2121087312698364,0.4756815731525421
1737749432242404400,9.017404296875,-0.49204403162002563,0.9753832817077637,0.44603368639945984
1737749432252470300,9.02747021484375,-0.423682302236557,0.5801233053207397,0.42551562190055847
1737749432262537500,9.037537353515624,-0.28308016061782837,0.13342677056789398,0.4191772937774658
1737749432272604400,9.0476044921875,-0.1484067738056183,-0.2741881310939789,0.3786109685897827
1737749432282671400,9.05767138671875,-0.044390901923179626,-0.6126319766044617,0.34161245822906494
1737749432292738600,9.067738525390626,0.02581987902522087,-0.8409871459007263,0.31625863909721375
1737749432302805500,9.077805419921875,0.05494926869869232,-0.9156776070594788,0.3042757511138916
1737749432312871400,9.087871337890626,0.04644979164004326,-0.7824758887290955,0.35341373085975647
1737749432322938400,9.0979384765625,0.004078631289303303,-0.4719020128250122,0.4287486970424652
1737749432333005300,9.10800537109375,-0.09897930920124054,-0.04671530798077583,0.4859169125556946
1737749432343072500,9.118072509765625,-0.24119743704795837,0.4112256169319153,0.5311450958251953
1737749432353139500,9.128139404296874,-0.3728441596031189,0.8582960367202759,0.6234907507896423
1737749432363205400,9.138205322265625,-0.4647945761680603,1.299256443977356,0.8207958340644836
1737749432373272300,9.148272216796874,-0.5047544836997986,1.6950609683990479,1.0518319606781006
1737749432383339500,9.158339599609375,-0.5072290897369385,1.9872422218322754,1.1254448890686035
1737749432393406500,9.168406494140624,-0.4671240448951721,2.109586000442505,1.096015453338623
1737749432403473400,9.178473388671875,-0.3993881344795227,2.0259456634521484,1.0653799772262573
1737749432413540400,9.188540283203125,-0.3506307303905487,1.8058698177337646,1.013527750968933
1737749432423606300,9.198606201171875,-0.33616337180137634,1.4788818359375,0.9168930649757385
1737749432433673500,9.208673583984375,-0.32535573840141296,1.0812151432037354,0.8105924725532532
1737749432443740400,9.218740478515626,-0.293602854013443,0.5956950783729553,0.7094464302062988
1737749432453807000,9.22880712890625,-0.23128701746463776,0.04532380402088165,0.5930918455123901
1737749432463874000,9.2388740234375,-0.15918485820293427,-0.5046056509017944,0.47664564847946167
1737749432473940200,9.248940185546875,-0.09303966164588928,-0.9827114939689636,0.3806315064430237
1737749432484007200,9.259007080078124,-0.053280264139175415,-1.334015965461731,0.3041045069694519
1737749432494074000,9.26907421875,-0.0321909599006176,-1.5702439546585083,0.22449222207069397
1737749432504141000,9.27914111328125,-0.044492632150650024,-1.7034707069396973,0.12690068781375885
1737749432514208000,9.2892080078125,-0.09409534186124802,-1.7587454319000244,0.058222558349370956
1737749432524275000,9.29927490234375,-0.1826355904340744,-1.7104159593582153,0.016802681609988213
1737749432534341000,9.309341064453125,-0.2981715202331543,-1.4904545545578003,-0.014657772146165371
1737749432544408000,9.319407958984375,-0.4056825339794159,-1.128070592880249,-0.01727406121790409
1737749432554475000,9.32947509765625,-0.4695912003517151,-0.7587412595748901,-0.014330203644931316
1737749432564542000,9.3395419921875,-0.47139760851860046,-0.5006449818611145,0.004667456261813641
1737749432574609200,9.349609130859376,-0.4292946457862854,-0.312173068523407,0.06927095353603363
1737749432584675000,9.359675048828125,-0.404178649187088,-0.10370828211307526,0.13380253314971924
1737749432594742000,9.369741943359376,-0.42665836215019226,0.2016707956790924,0.16088208556175232
1737749432604809000,9.37980908203125,-0.448971152305603,0.4756874442100525,0.19329462945461273
1737749432614876000,9.3898759765625,-0.42329373955726624,0.6316253542900085,0.21531283855438232
1737749432624943000,9.399943115234375,-0.3468021750450134,0.6913906931877136,0.25827789306640625
1737749432635009000,9.410009033203124,-0.2489008903503418,0.723559558391571,0.29905593395233154
1737749432645076000,9.420075927734375,-0.16753600537776947,0.67806077003479,0.2985094487667084
1737749432655143000,9.430142822265625,-0.0985228419303894,0.5321334004402161,0.26526761054992676
1737749432665210000,9.440210205078126,-0.03826935961842537,0.371833473443985,0.18986980617046356
1737749432675277000,9.450277099609375,0.0299065001308918,0.28530630469322205,0.1570652574300766
1737749432685344000,9.460343994140626,0.0837944969534874,0.2739729583263397,0.23602983355522156
1737749432695410000,9.470409912109375,0.095591239631176,0.4013940393924713,0.30942097306251526
1737749432705477000,9.48047705078125,0.06448711454868317,0.5956109166145325,0.351206511259079
1737749432715544000,9.4905439453125,0.02881966345012188,0.7737545371055603,0.39546263217926025
1737749432725611000,9.500611083984374,0.029149362817406654,0.9536651968955994,0.39090970158576965
1737749432735678200,9.51067822265625,0.06366819143295288,1.105527639389038,0.35817599296569824
1737749432745744000,9.520743896484374,0.1262386292219162,1.1692302227020264,0.32932355999946594
1737749432755811000,9.53081103515625,0.18946020305156708,1.1586929559707642,0.2872818410396576
1737749432765878000,9.5408779296875,0.22376757860183716,1.0961048603057861,0.23218290507793427
1737749432775945200,9.5509453125,0.2391824871301651,0.9475790858268738,0.22023756802082062
1737749432786012200,9.56101220703125,0.22885288298130035,0.7290006875991821,0.23961685597896576
1737749432796079000,9.5710791015625,0.1751616895198822,0.48417651653289795,0.2678564786911011
1737749432806145300,9.581145263671875,0.09560029208660126,0.2577921152114868,0.323714941740036
1737749432816212200,9.591212158203126,0.0032855418976396322,0.16647419333457947,0.3815987706184387
1737749432826279200,9.601279052734375,-0.06348975747823715,0.29311415553092957,0.5018585920333862
1737749432836346000,9.61134619140625,-0.07633285224437714,0.5724661946296692,0.5778801441192627
1737749432846413000,9.6214130859375,-0.08203308284282684,0.8586760759353638,0.5758973956108093
1737749432856479200,9.631479248046874,-0.11090175062417984,0.9971972107887268,0.5517968535423279
1737749432866546200,9.641546142578125,-0.15206916630268097,1.0185048580169678,0.5226727724075317
1737749432876613000,9.651613037109374,-0.14635054767131805,0.949363648891449,0.5107730031013489
1737749432886680000,9.66168017578125,-0.06914445012807846,0.8697021007537842,0.5050914287567139
1737749432896747000,9.6717470703125,0.0418904572725296,0.7485016584396362,0.43971744179725647
1737749432906814200,9.681814208984376,0.11817537248134613,0.5527958273887634,0.3233413100242615
1737749432916880100,9.691880126953125,0.13150662183761597,0.38673439621925354,0.2297799289226532
1737749432926947000,9.701947021484376,0.06921076029539108,0.27593570947647095,0.1622253954410553
1737749432937014000,9.712013916015625,-0.05455964803695679,0.3125922679901123,0.10243476182222366
1737749432947081200,9.722081298828124,-0.20408974587917328,0.5364810228347778,0.03361255303025246
1737749432957148200,9.732148193359375,-0.3235173523426056,0.8149214386940002,0.020536700263619423
1737749432967214000,9.742214111328124,-0.3891831636428833,1.052985429763794,0.0057321880012750626
1737749432977281000,9.752281005859375,-0.4007332921028137,1.1696454286575317,0.004887965973466635
1737749432987348000,9.762347900390624,-0.3821588158607483,1.1563136577606201,0.040656883269548416
1737749432997415200,9.772415283203125,-0.3731330931186676,1.033663034439087,0.016099607571959496
1737749433007482000,9.782482177734375,-0.3855370283126831,0.7898157835006714,0.019640279933810234
1737749433017548000,9.792548095703125,-0.42408496141433716,0.4529712200164795,0.026728549972176552
1737749433027615000,9.802614990234375,-0.44813358783721924,0.07913556694984436,0.01799045130610466
1737749433037682200,9.81268212890625,-0.42706477642059326,-0.31716543436050415,-0.015618640929460526
1737749433047749000,9.8227490234375,-0.3627704679965973,-0.7262331247329712,-0.041438519954681396
1737749433057816000,9.832816162109374,-0.2856426537036896,-1.0621436834335327,-0.06071580946445465
1737749433067883000,9.842883056640625,-0.2288970947265625,-1.318913221359253,-0.054972704499959946
1737749433077949000,9.852948974609374,-0.2068788856267929,-1.504486322402954,-0.01600106991827488
1737749433088016100,9.86301611328125,-0.19997729361057281,-1.5423170328140259,0.005261607468128204
1737749433098083000,9.8730830078125,-0.1928943544626236,-1.424790620803833,0.003641606541350484
1737749433108150000,9.88314990234375,-0.17235925793647766,-1.2167171239852905,-0.0027270768769085407
1737749433118217000,9.893217041015625,-0.13875707983970642,-0.9221786260604858,-0.021875470876693726
1737749433128283100,9.903283203125,-0.1614040732383728,-0.5699524283409119,-0.02666090615093708
1737749433138350000,9.91335009765625,-0.2474028766155243,-0.2233012616634369,-0.03971332311630249
1737749433148417000,9.9234169921875,-0.3260990083217621,0.1391158103942871,-0.05187864229083061
1737749433158484000,9.93348388671875,-0.3341881036758423,0.5324020981788635,-0.03753645718097687
1737749433168551000,9.943551025390626,-0.31987521052360535,0.9350563287734985,-0.053165484219789505
1737749433178618000,9.9536181640625,-0.35640284419059753,1.2224079370498657,-0.054793473333120346
1737749433188684000,9.96368408203125,-0.4053099453449249,1.3158513307571411,-0.09379200637340546
1737749433198751000,9.9737509765625,-0.38890352845191956,1.3668091297149658,-0.21849799156188965
1737749433208818200,9.983818115234374,-0.3263908922672272,1.3362306356430054,-0.40049147605895996
1737749433218885000,9.993885009765625,-0.2504732310771942,1.0965919494628906,-0.5067479014396667
1737749433228952000,10.0039521484375,-0.14738865196704865,0.6362976431846619,-0.5322356820106506
1737749433239018000,10.01401806640625,-0.07591687142848969,0.2231886088848114,-0.541172981262207
1737749433249085200,10.024085205078125,-0.1235877200961113,0.024878984317183495,-0.5429639220237732
1737749433259152100,10.034152099609376,-0.27513357996940613,-0.17091448605060577,-0.5962569713592529
1737749433269219000,10.044218994140625,-0.4584636986255646,-0.42372941970825195,-0.7492414712905884
1737749433279286300,10.054286376953126,-0.5643789768218994,-0.6722505688667297,-0.8897498846054077
1737749433289353200,10.064353271484375,-0.6072435975074768,-0.8530762791633606,-0.8950322270393372
1737749433299419100,10.074419189453126,-0.6358904242515564,-0.9863057136535645,-0.8344610333442688
1737749433309486000,10.084486083984375,-0.7139087915420532,-1.0484846830368042,-0.837054431438446
1737749433319553000,10.094552978515624,-0.7778739333152771,-1.028269648551941,-0.9632176756858826
1737749433329620200,10.1046201171875,-0.7350755929946899,-0.9031341075897217,-1.044685959815979
1737749433339687200,10.114687255859375,-0.6228358745574951,-0.6479409337043762,-1.0904608964920044
1737749433349753000,10.124753173828125,-0.5742097496986389,-0.456561416387558,-1.1719708442687988
1737749433359820000,10.134820068359375,-0.6163265705108643,-0.40660691261291504,-1.203688621520996
1737749433369887200,10.14488720703125,-0.7347083687782288,-0.6125326156616211,-1.2125846147537231
1737749433379954200,10.1549541015625,-0.8689430952072144,-0.6921811103820801,-1.2019908428192139
1737749433390021000,10.165021240234376,-0.9629489779472351,-0.7168542742729187,-1.161728858947754
1737749433400088000,10.175088134765625,-1.0297729969024658,-0.8483526110649109,-1.1227586269378662
1737749433410154000,10.185154052734376,-1.1399261951446533,-1.1487228870391846,-1.146993637084961
1737749433420221200,10.19522119140625,-1.3051705360412598,-1.3866517543792725,-1.0432525873184204
1737749433430288100,10.2052880859375,-1.4267579317092896,-1.4720412492752075,-1.0225830078125
1737749433440355000,10.21535498046875,-1.3981153964996338,-1.5174862146377563,-1.0022883415222168
1737749433450422500,10.225422607421875,-1.2753993272781372,-1.5391252040863037,-0.9550175666809082
1737749433460488400,10.235488525390625,-1.1929006576538086,-1.4402351379394531,-0.903923749923706
1737749433470555600,10.2455556640625,-1.1695953607559204,-1.3329435586929321,-0.835421085357666
1737749433480622600,10.25562255859375,-1.1681479215621948,-1.3713064193725586,-0.7279873490333557
1737749433490689500,10.265689453125,-1.1422712802886963,-1.412454605102539,-0.6748918890953064
1737749433500756500,10.275756591796876,-1.097151756286621,-1.4111638069152832,-0.5935911536216736
1737749433510823400,10.285823486328125,-1.083242416381836,-1.444738507270813,-0.6286037564277649
1737749433520889600,10.2958896484375,-1.1366586685180664,-1.4144948720932007,-0.7121103405952454
1737749433530956500,10.30595654296875,-1.1652147769927979,-1.4032683372497559,-0.7911452651023865
1737749433541023500,10.3160234375,-1.0537177324295044,-1.366636037826538,-0.8810424208641052
1737749433551090400,10.32609033203125,-0.9028776288032532,-1.377854347229004,-0.9282951354980469
1737749433561157400,10.336157470703125,-0.8472117185592651,-1.393256425857544,-0.9793841242790222
1737749433571224600,10.346224609375,-0.8890981674194336,-1.4062670469284058,-1.0208258628845215
1737749433581290500,10.35629052734375,-0.9632216691970825,-1.4302759170532227,-1.0113096237182617
1737749433591357400,10.366357421875,-1.0035592317581177,-1.549126148223877,-1.0001407861709595
1737749433601424400,10.37642431640625,-1.0115556716918945,-1.664703607559204,-0.9340313076972961
1737749433611491300,10.3864912109375,-1.0604052543640137,-1.7526297569274902,-0.9186952114105225
1737749433621558500,10.39655859375,-1.077134132385254,-1.8800444602966309,-0.850207507610321
1737749433631624400,10.40662451171875,-1.0458025932312012,-2.040989637374878,-0.8127182126045227
1737749433641691400,10.41669140625,-0.9836199283599854,-2.1285400390625,-0.8283986449241638
1737749433651758300,10.42675830078125,-0.8831188678741455,-2.076908588409424,-0.8528360724449158
1737749433661825500,10.436825439453125,-0.7964036464691162,-1.9404183626174927,-0.8182213306427002
1737749433671892500,10.446892578125,-0.7670364379882812,-1.7957303524017334,-0.8838427066802979
1737749433681959400,10.45695947265625,-0.7545542120933533,-1.671891212463379,-0.9118128418922424
1737749433692025300,10.467025390625,-0.792452871799469,-1.7293829917907715,-0.8985995650291443
1737749433702092300,10.47709228515625,-0.7993525862693787,-1.8294252157211304,-0.9082649350166321
1737749433712159500,10.487159423828125,-0.7767929434776306,-1.9084947109222412,-0.9075291156768799
1737749433722226400,10.497226318359376,-0.7709984183311462,-2.0130701065063477,-0.9089658856391907
1737749433732293400,10.50729345703125,-0.7650207281112671,-2.0355453491210938,-0.888016939163208
1737749433742359300,10.517359375,-0.7569659948348999,-1.9328086376190186,-0.8487704992294312
1737749433752426500,10.527426513671875,-0.7850423455238342,-1.630861759185791,-0.825112521648407
1737749433762493400,10.537493408203124,-0.8349936604499817,-1.4769127368927002,-0.7817027568817139
1737749433772560400,10.547560302734375,-0.8194008469581604,-1.4687453508377075,-0.738660454750061
1737749433782627300,10.55762744140625,-0.7165248394012451,-1.4437669515609741,-0.7673922777175903
1737749433792694500,10.567694580078125,-0.6127156019210815,-1.4160112142562866,-0.7315911054611206
1737749433802760400,10.577760498046874,-0.5714925527572632,-1.4460458755493164,-0.6223253607749939
1737749433812827400,10.587827392578125,-0.5721340775489807,-1.3371633291244507,-0.5688719749450684
1737749433822894300,10.597894287109375,-0.6611542105674744,-1.3939450979232788,-0.6209327578544617
1737749433832961500,10.60796142578125,-0.7488553524017334,-1.6915994882583618,-0.6326355338096619
1737749433843028500,10.618028564453125,-0.6362171769142151,-1.968198299407959,-0.6230859756469727
1737749433853095400,10.628095458984374,-0.4321218430995941,-2.146841049194336,-0.7407707571983337
1737749433863161600,10.63816162109375,-0.2912425100803375,-2.045344352722168,-0.8593964576721191
1737749433873228500,10.648228515625,-0.2602209448814392,-1.9579951763153076,-0.9254024028778076
1737749433883295500,10.65829541015625,-0.3370746970176697,-1.7659964561462402,-0.9815226793289185
1737749433893362400,10.668362548828124,-0.4120972752571106,-1.4662611484527588,-1.0012524127960205
1737749433903429600,10.6784296875,-0.4107433259487152,-1.3946921825408936,-1.0292885303497314
1737749433913496600,10.68849658203125,-0.36454519629478455,-1.479042649269104,-1.058958649635315
1737749433923562500,10.6985625,-0.3600223660469055,-1.534780502319336,-1.0624785423278809
1737749433933629400,10.70862939453125,-0.42543545365333557,-1.6745227575302124,-1.05112624168396
1737749433943696400,10.7186962890625,-0.4610815942287445,-1.788137435913086,-1.1020677089691162
1737749433953763600,10.728763671875,-0.4232276976108551,-1.6961268186569214,-1.1651015281677246
1737749433963830500,10.73883056640625,-0.3836264908313751,-1.7033839225769043,-1.1447573900222778
1737749433973896400,10.748896484375,-0.44149404764175415,-1.7368651628494263,-1.1512539386749268
1737749433983963400,10.75896337890625,-0.5420483350753784,-1.5779767036437988,-1.1850874423980713
1737749433994030600,10.769030517578125,-0.5936428308486938,-1.5556141138076782,-1.191515564918518
1737749434004097500,10.77909765625,-0.6072002053260803,-1.5837653875350952,-1.200539469718933
1737749434014164500,10.78916455078125,-0.6395655870437622,-1.5712509155273438,-1.1793595552444458
1737749434024231400,10.7992314453125,-0.6079208254814148,-1.6688663959503174,-1.1632328033447266
1737749434034297300,10.80929736328125,-0.5794961452484131,-1.7169407606124878,-1.144057273864746
1737749434044364500,10.819364501953125,-0.677165687084198,-1.595732569694519,-1.1703472137451172
1737749434054431500,10.829431396484376,-0.8083775043487549,-1.5628653764724731,-1.1329026222229004
1737749434064498400,10.83949853515625,-0.8454074263572693,-1.5843523740768433,-1.148034930229187
1737749434074565400,10.8495654296875,-0.7919514179229736,-1.5296409130096436,-1.2185381650924683
1737749434084631600,10.859631591796875,-0.7870602607727051,-1.524678349494934,-1.2785708904266357
1737749434094698500,10.869698486328126,-0.807776689529419,-1.5472060441970825,-1.2951362133026123
1737749434104765400,10.879765380859375,-0.7696359753608704,-1.611588716506958,-1.3203635215759277
1737749434114832400,10.889832275390624,-0.6752380728721619,-1.5802828073501587,-1.353225588798523
1737749434124899300,10.8998994140625,-0.6051535606384277,-1.5044620037078857,-1.4263850450515747
1737749434134966300,10.90996630859375,-0.5689753293991089,-1.485617995262146,-1.5135372877120972
1737749434145032400,10.920032470703125,-0.5844067335128784,-1.5604190826416016,-1.5276546478271484
1737749434155099400,10.930099365234375,-0.5823071002960205,-1.6274840831756592,-1.5251388549804688
1737749434165166300,10.940166259765626,-0.4503743648529053,-1.5488885641098022,-1.527234673500061
1737749434175233300,10.9502333984375,-0.2866669297218323,-1.442850112915039,-1.5416570901870728
1737749434185300200,10.96030029296875,-0.24320146441459656,-1.4885514974594116,-1.5590991973876953
1737749434195367400,10.970367431640625,-0.34257757663726807,-1.556206226348877,-1.5627442598342896
1737749434205433300,10.980433349609376,-0.446096271276474,-1.6601210832595825,-1.5606456995010376
1737749434215500300,10.990500244140625,-0.42034587264060974,-1.7159513235092163,-1.4796195030212402
1737749434225567200,11.000567138671874,-0.3086608946323395,-1.744795560836792,-1.3992743492126465
1737749434235634700,11.010634765625,-0.13171301782131195,-1.8060650825500488,-1.365025281906128
1737749434245701600,11.02070166015625,0.010777280665934086,-1.8285725116729736,-1.2755972146987915
1737749434255768600,11.0307685546875,0.0957861840724945,-1.7232060432434082,-1.1542412042617798
1737749434265834500,11.04083447265625,0.11885528266429901,-1.4333566427230835,-0.9723038673400879
1737749434275901400,11.0509013671875,0.16218650341033936,-1.113978385925293,-0.8105186820030212
1737749434285968600,11.06096875,0.13156042993068695,-0.8502290844917297,-0.7032681107521057
1737749434296035600,11.07103564453125,-0.04905010014772415,-0.7129154205322266,-0.6124282479286194
1737749434306102500,11.0811025390625,-0.12672172486782074,-0.6186872124671936,-0.4569465219974518
1737749434316168400,11.09116845703125,-0.026329874992370605,-0.7789149284362793,-0.3919038474559784
1737749434326235600,11.101235595703125,0.02496766857802868,-1.1143150329589844,-0.4934275448322296
1737749434336302600,11.111302490234374,-0.02093457616865635,-1.3161118030548096,-0.529672384262085
1737749434346369500,11.12136962890625,0.03539074584841728,-1.1249911785125732,-0.5531017780303955
1737749434356436500,11.1314365234375,0.17371533811092377,-0.7301521897315979,-0.5464974045753479
1737749434366502400,11.14150244140625,0.30087143182754517,-0.40852463245391846,-0.5273420810699463
1737749434376569600,11.151569580078124,0.4181581139564514,-0.2707904875278473,-0.42569538950920105
1737749434386636500,11.161636474609375,0.4375206232070923,-0.16530267894268036,-0.31971994042396545
1737749434396703500,11.171703369140625,0.35747769474983215,-0.12659256160259247,-0.2052903026342392
1737749434406770400,11.1817705078125,0.3390220105648041,-0.1586357206106186,-0.005049619823694229
1737749434416837400,11.19183740234375,0.4968782067298889,-0.203324094414711,0.16028660535812378
1737749434426903600,11.201903564453126,0.8343936800956726,-0.26965224742889404,0.24064190685749054
1737749434436970500,11.211970458984375,1.3147627115249634,-0.31583306193351746,0.36666056513786316
1737749434447037400,11.222037353515624,1.7174509763717651,-0.199305921792984,0.5924497246742249
1737749434457104000,11.232103759765625,1.8407667875289917,0.2815861403942108,0.8180919289588928
1737749434467171000,11.242171142578124,1.791333794593811,0.9143611788749695,1.0691430568695068
1737749434477237000,11.252237060546875,1.7558945417404175,1.4137110710144043,1.3618603944778442
1737749434487304000,11.262303955078124,1.766233205795288,1.6910563707351685,1.645349144935608
1737749434497371000,11.272370849609375,1.802410364151001,1.8363145589828491,1.848056435585022
1737749434507437800,11.282437744140625,1.910445213317871,1.8768483400344849,2.035536766052246
1737749434517505000,11.292505126953126,2.0734434127807617,1.876680612564087,2.214160442352295
1737749434527571000,11.302571044921875,2.2003161907196045,1.9119282960891724,2.3578522205352783
1737749434537638000,11.312637939453126,2.2898075580596924,1.9999463558197021,2.470763921737671
1737749434547704800,11.322704833984375,2.3953464031219482,2.0651304721832275,2.6010217666625977
1737749434557772000,11.33277197265625,2.5549516677856445,2.092392921447754,2.8067896366119385
1737749434567839000,11.3428388671875,2.7940564155578613,2.103057622909546,3.102715015411377
1737749434577906000,11.352906005859374,3.0066049098968506,2.1526529788970947,3.2927145957946777
1737749434587971800,11.362971923828125,3.0720467567443848,2.1493351459503174,3.2681779861450195
1737749434598038800,11.373038818359374,2.996328592300415,2.096933603286743,3.1923766136169434
1737749434608106000,11.38310595703125,2.902834177017212,2.123709201812744,3.279430389404297
1737749434618173000,11.3931728515625,2.9200406074523926,2.2841365337371826,3.4467177391052246
1737749434628240000,11.403239990234376,3.012969493865967,2.547879934310913,3.7401201725006104
1737749434638305800,11.413305908203125,3.0609512329101562,2.8966143131256104,3.941976308822632
1737749434648373000,11.423373046875,3.0497002601623535,3.382225275039673,3.983947515487671
1737749434658440000,11.43343994140625,2.953357696533203,3.9051661491394043,3.971182107925415
1737749434668507000,11.4435068359375,2.7795517444610596,4.253861904144287,3.861436367034912
1737749434678573800,11.45357373046875,2.5680806636810303,4.446678638458252,3.6577229499816895
1737749434688641000,11.46364111328125,2.375579595565796,4.4538421630859375,3.4837515354156494
1737749434698707000,11.47370703125,2.2867536544799805,4.1995625495910645,3.5371434688568115
1737749434708774000,11.48377392578125,2.2073917388916016,3.832857847213745,3.5277373790740967
1737749434718840800,11.4938408203125,2.1450235843658447,3.499016046524048,3.5021512508392334
1737749434728908000,11.503907958984374,2.108536720275879,3.317941665649414,3.477858781814575
1737749434738975000,11.51397509765625,2.0635576248168945,3.2123725414276123,3.4458703994750977
1737749434749041000,11.524041015625,1.9786237478256226,3.107553720474243,3.4144785404205322
1737749434759108000,11.534108154296876,1.756616473197937,3.227405548095703,3.321012020111084
1737749434769175000,11.544175048828125,1.38832688331604,3.570664882659912,3.2232892513275146
1737749434779242000,11.554241943359376,1.043113112449646,3.8504843711853027,3.198380708694458
1737749434789309000,11.564308837890625,0.8791925311088562,3.691927194595337,3.1579017639160156
1737749434799376100,11.574376220703124,0.8986656069755554,3.0950489044189453,3.0933949947357178
1737749434809442000,11.584442138671875,0.9377797245979309,2.375812530517578,3.0585291385650635
1737749434819509000,11.594509033203124,0.9061565399169922,1.848796010017395,2.915458917617798
1737749434829576000,11.604575927734375,0.8921440243721008,1.4918959140777588,2.6944801807403564
1737749434839643000,11.614642822265624,0.8997370004653931,1.1022754907608032,2.6022346019744873
1737749434849710000,11.6247099609375,0.8384435176849365,0.6721909046173096,2.640465259552002
1737749434859776000,11.63477587890625,0.6087527871131897,0.44736018776893616,2.686278820037842
1737749434869843000,11.644843017578125,0.28813084959983826,0.5595876574516296,2.61643648147583
1737749434879910000,11.654909912109375,0.04881654307246208,0.8885722160339355,2.4716835021972656
1737749434889977000,11.66497705078125,-0.02244245819747448,1.135627269744873,2.217116117477417
1737749434900044000,11.6750439453125,0.023078421130776405,1.1415517330169678,2.0493323802948
1737749434910110000,11.68510986328125,0.06712257862091064,1.200790524482727,2.014155864715576
1737749434920177000,11.695177001953125,0.012072907760739326,1.3590558767318726,1.8976441621780396
1737749434930244000,11.705244140625,-0.117550328373909,1.4510427713394165,1.7357066869735718
1737749434940311000,11.71531103515625,-0.19621025025844574,1.3633164167404175,1.6012399196624756
1737749434950377000,11.725376953125,-0.15598852932453156,1.1879544258117676,1.4841508865356445
1737749434960443100,11.735443115234375,-0.08192522823810577,1.0102277994155884,1.3216423988342285
1737749434970510000,11.745510009765624,-0.07526972144842148,0.8799859285354614,1.2225456237792969
1737749434980577000,11.755576904296875,-0.18065287172794342,0.751359224319458,1.1356483697891235
1737749434990644000,11.76564404296875,-0.36521339416503906,0.6686289310455322,1.0173081159591675
1737749435000711000,11.7757109375,-0.5088781714439392,0.5988951325416565,0.9086633920669556
1737749435010777900,11.78577783203125,-0.5667478442192078,0.4729233384132385,0.753145158290863
1737749435020844000,11.795843994140625,-0.5694671869277954,0.3157161474227905,0.5688797235488892
1737749435030911000,11.805910888671875,-0.5559226274490356,0.20154829323291779,0.4416588842868805
1737749435040978000,11.81597802734375,-0.6141135096549988,0.14744910597801208,0.2927463948726654
1737749435051044900,11.826044921875,-0.7621602416038513,0.061470285058021545,0.16569975018501282
1737749435061111800,11.83611181640625,-0.9250684380531311,-0.051228299736976624,0.06978387385606766
1737749435071178000,11.846177978515625,-0.9885190725326538,-0.11011984944343567,-0.03308285027742386
1737749435081245000,11.856244873046874,-0.9127689003944397,-0.1652936190366745,-0.1111006885766983
1737749435091311900,11.866311767578125,-0.7960859537124634,-0.20195895433425903,-0.15032532811164856
1737749435101378800,11.87637890625,-0.7485677003860474,-0.1173737645149231,-0.19715647399425507
1737749435111446000,11.886446044921875,-0.8193414807319641,-0.05011749640107155,-0.2869148552417755
1737749435121512000,11.896511962890624,-0.9272881746292114,0.029638852924108505,-0.36702167987823486
1737749435131579000,11.906578857421875,-0.9558335542678833,0.050043992698192596,-0.4465782940387726
1737749435141645800,11.916645751953125,-0.8559354543685913,0.052266933023929596,-0.5135237574577332
1737749435151712800,11.926712646484376,-0.715864896774292,-0.1086399257183075,-0.7499357461929321
1737749435161780000,11.936780029296875,-0.6438530087471008,-0.3814890384674072,-0.939562976360321
1737749435171847000,11.946846923828126,-0.6775651574134827,-0.6582269072532654,-1.0171208381652832
1737749435181912800,11.956912841796875,-0.8578446507453918,-0.7894070148468018,-0.9984273314476013
1737749435191979800,11.966979736328126,-1.0151118040084839,-0.7061712741851807,-0.9504912495613098
1737749435202047000,11.977046875,-1.0311211347579956,-0.4963628947734833,-0.9580897688865662
1737749435212114000,11.987114013671874,-0.9845232367515564,-0.4243669807910919,-0.9618837237358093
1737749435222180900,11.997180908203125,-1.0351206064224243,-0.5442640781402588,-0.9314813017845154
1737749435232246800,12.007246826171874,-1.2149063348770142,-0.7781133651733398,-0.9040204286575317
1737749435242314000,12.01731396484375,-1.3984788656234741,-1.261600136756897,-0.9600985646247864
1737749435252381000,12.027380859375,-1.482237696647644,-1.6546357870101929,-1.1170320510864258
1737749435262448000,12.0374482421875,-1.4170621633529663,-1.767054557800293,-1.1173616647720337
1737749435272515000,12.04751513671875,-1.3338795900344849,-1.8107465505599976,-1.098635196685791
1737749435282582000,12.05758203125,-1.3451035022735596,-1.6233841180801392,-1.097366213798523
1737749435292648000,12.06764794921875,-1.4472237825393677,-1.0629945993423462,-1.0429871082305908
1737749435302715100,12.077715087890626,-1.589613676071167,-0.5997862219810486,-0.9795036911964417
1737749435312782000,12.087781982421875,-1.7098644971847534,-0.4682585597038269,-0.8216347098350525
1737749435322849000,12.09784912109375,-1.7484941482543945,-0.6244460344314575,-0.6494153141975403
1737749435332916000,12.107916015625,-1.6773139238357544,-0.9262575507164001,-0.5119844675064087
1737749435342983000,12.11798291015625,-1.5585228204727173,-1.4663923978805542,-0.5209944844245911
1737749435353049000,12.128049072265625,-1.5478664636611938,-1.9930620193481445,-0.5714530944824219
1737749435363116000,12.138115966796875,-1.629891037940979,-2.3244879245758057,-0.5813630223274231
1737749435373183000,12.148182861328126,-1.6241860389709473,-2.3803935050964355,-0.5078784227371216
1737749435383250000,12.15825,-1.5728427171707153,-2.175358295440674,-0.46934086084365845
1737749435393316900,12.16831689453125,-1.539623498916626,-1.7109826803207397,-0.478302925825119
1737749435403383000,12.178383056640625,-1.5236741304397583,-1.1656309366226196,-0.47801610827445984
1737749435413450000,12.188449951171876,-1.5570170879364014,-0.8023393154144287,-0.4646667540073395
1737749435423517000,12.198516845703125,-1.6129733324050903,-0.7633621096611023,-0.543876588344574
1737749435433583900,12.208583984375,-1.6124308109283447,-0.9977818131446838,-0.5288622379302979
1737749435443651000,12.218651123046875,-1.5414531230926514,-1.3759557008743286,-0.5456185936927795
1737749435453718000,12.228718017578124,-1.3763421773910522,-1.6911450624465942,-0.5809781551361084
1737749435463787500,12.23878759765625,-1.2434927225112915,-1.9115235805511475,-0.5667870044708252
1737749435473854500,12.2488544921875,-1.2475223541259766,-1.9973050355911255,-0.5812061429023743
1737749435483921400,12.25892138671875,-1.3411064147949219,-1.8378583192825317,-0.6599717736244202
1737749435493988600,12.268988525390625,-1.36815345287323,-1.5320886373519897,-0.6999120116233826
1737749435504055600,12.2790556640625,-1.311073899269104,-1.5032646656036377,-0.7779439687728882
1737749435514122500,12.28912255859375,-1.244485855102539,-1.5861963033676147,-0.7662681341171265
1737749435524188400,12.2991884765625,-1.2387592792510986,-1.7914725542068481,-0.7429782748222351
1737749435534255600,12.309255615234376,-1.2286491394042969,-2.013312578201294,-0.7752640247344971
1737749435544322600,12.319322509765625,-1.1542472839355469,-2.2135980129241943,-0.8193521499633789
1737749435554389500,12.329389404296874,-1.0231654644012451,-2.3490281105041504,-0.8629608750343323
1737749435564456400,12.33945654296875,-0.9641271829605103,-2.417980909347534,-0.9428392052650452
1737749435574523600,12.349523681640624,-1.0130594968795776,-2.440415382385254,-1.0727708339691162
1737749435584590600,12.359590576171875,-1.048051118850708,-2.463817834854126,-1.145047903060913
1737749435594657500,12.369657470703125,-1.0068155527114868,-2.517806053161621,-1.1234878301620483
1737749435604724700,12.379724853515626,-0.9373690485954285,-2.4839515686035156,-1.0858772993087769
1737749435614791700,12.389791748046875,-0.9474006295204163,-2.3305258750915527,-1.0946630239486694
1737749435624858600,12.399858642578126,-0.9978020191192627,-2.2960364818573,-1.0406494140625
1737749435634925600,12.409925537109375,-0.9107427597045898,-2.440164566040039,-1.0076919794082642
1737749435644991700,12.41999169921875,-0.7237648963928223,-2.5276546478271484,-0.9656006693840027
1737749435655058700,12.43005859375,-0.626204252243042,-2.5025322437286377,-0.9145563840866089
1737749435665125600,12.440125732421874,-0.6988861560821533,-2.425877094268799,-0.8753605484962463
1737749435675192600,12.450192626953125,-0.7721577286720276,-2.358980655670166,-0.7842194437980652
1737749435685259500,12.460259521484375,-0.7701965570449829,-2.3287174701690674,-0.771898090839386
1737749435695326500,12.470326416015626,-0.8143131732940674,-2.354926824569702,-0.8212517499923706
1737749435705392600,12.480392578125,-0.8757070302963257,-2.5642008781433105,-0.8237785696983337
1737749435715459600,12.49045947265625,-0.8938066363334656,-2.782668113708496,-0.8392139673233032
1737749435725526500,12.500526611328125,-0.8639670014381409,-2.8071327209472656,-0.8168367743492126
1737749435735593500,12.510593505859376,-0.8202581405639648,-2.8110742568969727,-0.7871116399765015
1737749435745660400,12.520660400390625,-0.8056656122207642,-2.619924545288086,-0.7066644430160522
1737749435755727600,12.5307275390625,-0.787229061126709,-2.358846664428711,-0.6643886566162109
1737749435765793500,12.54079345703125,-0.7613080143928528,-2.12304425239563,-0.655052125453949
1737749435775860500,12.550860595703124,-0.6903361082077026,-2.145453691482544,-0.5776966214179993
1737749435785927400,12.560927490234375,-0.7115750908851624,-2.359316825866699,-0.5789229869842529
1737749435795994600,12.57099462890625,-0.7865100502967834,-2.512794017791748,-0.617677628993988
1737749435806061600,12.5810615234375,-0.7251446843147278,-2.717349052429199,-0.6363764405250549
1737749435816128500,12.59112841796875,-0.5991726517677307,-2.7583513259887695,-0.6905320882797241
1737749435826194400,12.6011943359375,-0.45940300822257996,-2.4659976959228516,-0.7077739238739014
1737749435836261600,12.61126171875,-0.513308048248291,-2.4866151809692383,-0.6339199542999268
1737749435846328600,12.62132861328125,-0.847002387046814,-2.4042909145355225,-0.617458164691925
1737749435856395500,12.6313955078125,-1.0399683713912964,-2.2143752574920654,-0.5243090391159058
1737749435866462500,12.64146240234375,-0.9010201096534729,-2.314823627471924,-0.4434189796447754
1737749435876529700,12.65152978515625,-0.6186890602111816,-2.3463714122772217,-0.45729511976242065
1737749435886595600,12.661595703125,-0.3552555739879608,-2.2495734691619873,-0.5090850591659546
1737749435896662500,12.67166259765625,-0.14934714138507843,-2.1671910285949707,-0.4642539620399475
1737749435906729500,12.6817294921875,-0.09051524847745895,-2.2273733615875244,-0.4392484724521637
1737749435916796700,12.691796630859375,-0.10670407861471176,-2.1300899982452393,-0.46570244431495667
1737749435926863600,12.701863525390625,-0.19534659385681152,-2.016757011413574,-0.4714908301830292
1737749435936930600,12.7119306640625,-0.2915500998497009,-2.1152002811431885,-0.5492133498191833
1737749435946996700,12.721996826171875,-0.2702474594116211,-2.16202974319458,-0.668344259262085
1737749435957063700,12.732063720703126,-0.19250527024269104,-2.107571840286255,-0.8023505210876465
1737749435967130600,12.742130615234375,-0.14663071930408478,-2.112994432449341,-0.927394688129425
1737749435977197600,12.752197509765624,-0.16931845247745514,-2.1589953899383545,-1.0173091888427734
1737749435987264500,12.762264404296875,-0.22513830661773682,-2.1892662048339844,-1.0722733736038208
1737749435997331700,12.772331787109374,-0.2921391725540161,-2.2639191150665283,-1.0964316129684448
1737749436007397600,12.782397705078125,-0.35905829071998596,-2.296273708343506,-1.098633885383606
