time,seconds_elapsed,z,y,x
1737750026098084000,0.118083984375,-0.42327880859375,0.8782501220703125,0.215362548828125
1737750026108151800,0.12815185546875,-0.4243316650390625,0.879791259765625,0.2209625244140625
1737750026118219800,0.1382197265625,-0.4281005859375,0.8773956298828125,0.218170166015625
1737750026128288000,0.1482880859375,-0.4283905029296875,0.873138427734375,0.212554931640625
1737750026138355000,0.15835498046875,-0.426605224609375,0.8768768310546875,0.209442138671875
1737750026148423000,0.1684228515625,-0.423919677734375,0.8785858154296875,0.2053985595703125
1737750026158491000,0.178490966796875,-0.4239349365234375,0.8798675537109375,0.2041473388671875
1737750026168558800,0.188558837890625,-0.4249725341796875,0.8834381103515625,0.2018280029296875
1737750026178625800,0.198625732421875,-0.4235382080078125,0.8853912353515625,0.19744873046875
1737750026188694000,0.208694091796875,-0.42449951171875,0.884857177734375,0.1960906982421875
1737750026198762000,0.218761962890625,-0.4259796142578125,0.8803558349609375,0.193084716796875
1737750026208829000,0.228828857421875,-0.427032470703125,0.8767242431640625,0.1954345703125
1737750026218897000,0.23889697265625,-0.4287567138671875,0.874359130859375,0.1981964111328125
1737750026228965000,0.248965087890625,-0.4309539794921875,0.87237548828125,0.19976806640625
1737750026239033000,0.259033203125,-0.434417724609375,0.871002197265625,0.1995849609375
1737750026249100000,0.26910009765625,-0.4293212890625,0.8700408935546875,0.1993255615234375
1737750026259168000,0.27916796875,-0.4263458251953125,0.870574951171875,0.1967926025390625
1737750026269236000,0.289236083984375,-0.4278411865234375,0.8680572509765625,0.1938323974609375
1737750026279304000,0.299303955078125,-0.4269561767578125,0.868316650390625,0.1898193359375
1737750026289371100,0.30937109375,-0.4285430908203125,0.874359130859375,0.19000244140625
1737750026299438800,0.31943896484375,-0.4306488037109375,0.8776397705078125,0.193145751953125
1737750026309506800,0.3295068359375,-0.426544189453125,0.8765716552734375,0.19073486328125
1737750026319574800,0.33957470703125,-0.4249267578125,0.879547119140625,0.1883544921875
1737750026329641700,0.349641845703125,-0.4270782470703125,0.880523681640625,0.1858673095703125
1737750026339710000,0.3597099609375,-0.427520751953125,0.8765716552734375,0.1851654052734375
1737750026349778000,0.36977783203125,-0.427764892578125,0.8745574951171875,0.1874542236328125
1737750026359846000,0.379845947265625,-0.425994873046875,0.873779296875,0.1899261474609375
1737750026369912800,0.389912841796875,-0.424407958984375,0.8740234375,0.19158935546875
1737750026379981000,0.39998095703125,-0.425384521484375,0.8717803955078125,0.1956634521484375
1737750026390049000,0.410049072265625,-0.42608642578125,0.8719635009765625,0.19873046875
1737750026400117000,0.420116943359375,-0.428863525390625,0.878662109375,0.1975860595703125
1737750026410184000,0.430183837890625,-0.43048095703125,0.878875732421875,0.19927978515625
1737750026420251600,0.440251708984375,-0.428497314453125,0.8814849853515625,0.20135498046875
1737750026430319900,0.45031982421875,-0.4279022216796875,0.8875274658203125,0.2018280029296875
1737750026440386800,0.46038671875,-0.42529296875,0.8910369873046875,0.2051544189453125
1737750026450454800,0.470454833984375,-0.425079345703125,0.889373779296875,0.21221923828125
1737750026460522800,0.480522705078125,-0.4224853515625,0.888458251953125,0.2171173095703125
1737750026470590500,0.490590576171875,-0.4203948974609375,0.888641357421875,0.2185516357421875
1737750026480657700,0.50065771484375,-0.4229278564453125,0.88909912109375,0.216033935546875
1737750026490725600,0.5107255859375,-0.4234161376953125,0.8860626220703125,0.215484619140625
1737750026500793600,0.520793701171875,-0.4227447509765625,0.8801727294921875,0.2178497314453125
1737750026510861600,0.530861572265625,-0.4224090576171875,0.8754425048828125,0.219879150390625
1737750026520928500,0.540928466796875,-0.424163818359375,0.8746185302734375,0.21978759765625
1737750026530996700,0.550996826171875,-0.4263916015625,0.8712310791015625,0.2216644287109375
1737750026541064700,0.561064697265625,-0.42529296875,0.8666534423828125,0.225738525390625
1737750026551132700,0.571132568359375,-0.4208526611328125,0.8649444580078125,0.2269134521484375
1737750026561199600,0.58119970703125,-0.4186859130859375,0.8619232177734375,0.2241668701171875
1737750026571267600,0.591267578125,-0.4235687255859375,0.8611297607421875,0.221343994140625
1737750026581335800,0.601335693359375,-0.4233551025390625,0.8595428466796875,0.22344970703125
1737750026591403800,0.61140380859375,-0.4236602783203125,0.85821533203125,0.2247467041015625
1737750026601470700,0.621470703125,-0.4239654541015625,0.8604888916015625,0.225433349609375
1737750026611538700,0.63153857421875,-0.4244384765625,0.8580169677734375,0.226715087890625
1737750026621606700,0.641606689453125,-0.4267578125,0.8572845458984375,0.2269439697265625
1737750026631675000,0.6516748046875,-0.4290008544921875,0.8638458251953125,0.2260589599609375
1737750026641741800,0.661741943359375,-0.431427001953125,0.872406005859375,0.2263641357421875
1737750026651809800,0.671809814453125,-0.430877685546875,0.87811279296875,0.22674560546875
1737750026661877800,0.681877685546875,-0.4284515380859375,0.8807525634765625,0.229278564453125
1737750026671945500,0.691945556640625,-0.426361083984375,0.8824310302734375,0.230224609375
1737750026682012700,0.7020126953125,-0.42578125,0.884918212890625,0.2257232666015625
1737750026692080600,0.71208056640625,-0.4271087646484375,0.8852386474609375,0.2208709716796875
1737750026702148600,0.722148681640625,-0.4282684326171875,0.8836212158203125,0.2195281982421875
1737750026712216600,0.732216552734375,-0.427215576171875,0.8846435546875,0.22308349609375
1737750026722283500,0.742283447265625,-0.4273834228515625,0.8841094970703125,0.226715087890625
1737750026732351700,0.752351806640625,-0.4255523681640625,0.884674072265625,0.2298583984375
1737750026742419700,0.762419677734375,-0.4246826171875,0.884552001953125,0.2304534912109375
1737750026752486700,0.772486572265625,-0.4245147705078125,0.8837127685546875,0.2265777587890625
1737750026762554600,0.7825546875,-0.4229888916015625,0.8849639892578125,0.221588134765625
1737750026772622600,0.79262255859375,-0.4216766357421875,0.8817901611328125,0.2201690673828125
1737750026782690800,0.80269091796875,-0.41912841796875,0.8795623779296875,0.22418212890625
1737750026792757800,0.8127578125,-0.4184417724609375,0.88165283203125,0.226531982421875
1737750026802825700,0.82282568359375,-0.4178466796875,0.8836212158203125,0.22674560546875
1737750026812893700,0.832893798828125,-0.41754150390625,0.8849945068359375,0.224517822265625
1737750026822961700,0.842961669921875,-0.41790771484375,0.889190673828125,0.221893310546875
1737750026833028900,0.85302880859375,-0.4183349609375,0.8935546875,0.2218017578125
1737750026843096800,0.863096923828125,-0.420745849609375,0.8945159912109375,0.2230072021484375
1737750026853164800,0.873164794921875,-0.422760009765625,0.8928375244140625,0.2266082763671875
1737750026863232500,0.883232421875,-0.4225311279296875,0.8925018310546875,0.226776123046875
1737750026873299700,0.8932998046875,-0.42242431640625,0.8895111083984375,0.2294158935546875
1737750026883367700,0.90336767578125,-0.4215240478515625,0.88665771484375,0.23175048828125
1737750026893435600,0.913435546875,-0.42340087890625,0.8831024169921875,0.229949951171875
1737750026903503600,0.923503662109375,-0.42767333984375,0.8794097900390625,0.234649658203125
1737750026913570600,0.933570556640625,-0.431549072265625,0.872283935546875,0.2379302978515625
1737750026923638500,0.943638427734375,-0.431427001953125,0.8702392578125,0.2404022216796875
1737750026933706800,0.953706787109375,-0.43475341796875,0.8697967529296875,0.2408599853515625
1737750026943773700,0.963773681640625,-0.4378204345703125,0.8715972900390625,0.2412567138671875
1737750026953841700,0.973841552734375,-0.4393463134765625,0.8715362548828125,0.2429962158203125
1737750026963909600,0.98390966796875,-0.4401397705078125,0.87298583984375,0.2447357177734375
1737750026973977900,0.993977783203125,-0.4400787353515625,0.875152587890625,0.2465362548828125
1737750026984044800,1.004044921875,-0.4420013427734375,0.8791656494140625,0.2514495849609375
1737750026994112800,1.01411279296875,-0.4424285888671875,0.8857421875,0.2522735595703125
1737750027004180700,1.0241806640625,-0.4443817138671875,0.8890838623046875,0.2505950927734375
1737750027014248700,1.034248779296875,-0.444915771484375,0.890228271484375,0.248382568359375
1737750027024315600,1.044315673828125,-0.44781494140625,0.88543701171875,0.246795654296875
1737750027034384000,1.0543837890625,-0.4503631591796875,0.8856048583984375,0.2436370849609375
1737750027044451800,1.064451904296875,-0.450347900390625,0.8838653564453125,0.2396392822265625
1737750027054519600,1.07451953125,-0.4487457275390625,0.8803558349609375,0.23748779296875
1737750027064586800,1.084586669921875,-0.4466705322265625,0.8795013427734375,0.2360687255859375
1737750027074654500,1.094654541015625,-0.4433135986328125,0.8826904296875,0.2370452880859375
1737750027084722700,1.10472265625,-0.4393463134765625,0.8799285888671875,0.2402496337890625
1737750027094790700,1.114790771484375,-0.4370269775390625,0.8785552978515625,0.244232177734375
1737750027104857600,1.124857666015625,-0.432861328125,0.8793792724609375,0.247222900390625
1737750027114925600,1.134925537109375,-0.4332427978515625,0.8769073486328125,0.2490234375
1737750027124993800,1.144993896484375,-0.43048095703125,0.875091552734375,0.2482452392578125
1737750027135060700,1.155060791015625,-0.428466796875,0.872314453125,0.24713134765625
1737750027145128700,1.165128662109375,-0.4288177490234375,0.8719940185546875,0.2464141845703125
1737750027155196700,1.17519677734375,-0.4275054931640625,0.8695526123046875,0.2439422607421875
1737750027165264600,1.1852646484375,-0.4219970703125,0.867706298828125,0.2445526123046875
1737750027175331600,1.19533154296875,-0.417510986328125,0.8704376220703125,0.2427215576171875
1737750027185399800,1.20539990234375,-0.4169464111328125,0.871734619140625,0.2418212890625
1737750027195467800,1.2154677734375,-0.419342041015625,0.878143310546875,0.237640380859375
1737750027205535700,1.22553564453125,-0.4208221435546875,0.885009765625,0.235443115234375
1737750027215602700,1.235602783203125,-0.4188232421875,0.884368896484375,0.2350006103515625
1737750027225670700,1.245670654296875,-0.4212646484375,0.885772705078125,0.235107421875
1737750027235739000,1.25573876953125,-0.4245147705078125,0.8863372802734375,0.2375640869140625
1737750027245806600,1.265806640625,-0.4241943359375,0.884033203125,0.2402191162109375
1737750027255873800,1.275873779296875,-0.4224090576171875,0.880950927734375,0.244140625
1737750027265941500,1.28594140625,-0.4215545654296875,0.8825531005859375,0.24774169921875
1737750027276009700,1.296009765625,-0.4182891845703125,0.8767547607421875,0.2490234375
1737750027286076700,1.30607666015625,-0.4163665771484375,0.8750762939453125,0.2554931640625
1737750027296144600,1.31614453125,-0.4181060791015625,0.8779754638671875,0.258453369140625
1737750027306212600,1.326212646484375,-0.4185943603515625,0.87646484375,0.259307861328125
1737750027316280600,1.336280517578125,-0.419525146484375,0.877960205078125,0.2601470947265625
1737750027326347500,1.346347412109375,-0.4205780029296875,0.87762451171875,0.256744384765625
1737750027336415700,1.356415771484375,-0.4214324951171875,0.87493896484375,0.245330810546875
1737750027346483700,1.366483642578125,-0.4265594482421875,0.8804779052734375,0.2372894287109375
1737750027356551700,1.3765517578125,-0.436676025390625,0.8868560791015625,0.2255401611328125
1737750027366618600,1.38661865234375,-0.4492034912109375,0.8983001708984375,0.21478271484375
1737750027376686600,1.3966865234375,-0.4583892822265625,0.9062042236328125,0.2117767333984375
1737750027386754800,1.4067548828125,-0.4649200439453125,0.894744873046875,0.211456298828125
1737750027396822800,1.41682275390625,-0.4769287109375,0.89593505859375,0.2141571044921875
1737750027406889700,1.4268896484375,-0.4892730712890625,0.8874359130859375,0.2111053466796875
1737750027416957400,1.43695751953125,-0.5086212158203125,0.8944091796875,0.21240234375
1737750027427025400,1.447025390625,-0.508148193359375,0.866180419921875,0.1988372802734375
1737750027437093400,1.45709326171875,-0.5030517578125,0.848663330078125,0.197418212890625
1737750027447160600,1.46716064453125,-0.5054931640625,0.8402099609375,0.1980133056640625
1737750027457228500,1.477228515625,-0.5160980224609375,0.8397369384765625,0.19793701171875
1737750027467296300,1.487296142578125,-0.51904296875,0.828643798828125,0.1950225830078125
1737750027477363500,1.497363525390625,-0.519317626953125,0.8275909423828125,0.1920318603515625
1737750027487431200,1.50743115234375,-0.5239410400390625,0.83038330078125,0.176361083984375
1737750027497499400,1.51749951171875,-0.49359130859375,0.76416015625,0.162078857421875
1737750027507567400,1.5275673828125,-0.49578857421875,0.7784423828125,0.1638031005859375
1737750027517634300,1.53763427734375,-0.5078887939453125,0.7935028076171875,0.154083251953125
1737750027527702300,1.547702392578125,-0.505889892578125,0.77783203125,0.14764404296875
1737750027537770500,1.5577705078125,-0.498046875,0.767730712890625,0.1454620361328125
1737750027547838500,1.56783837890625,-0.497833251953125,0.7666015625,0.141754150390625
1737750027557905400,1.577905517578125,-0.49749755859375,0.7622528076171875,0.1455841064453125
1737750027567973400,1.587973388671875,-0.49993896484375,0.7570953369140625,0.1492919921875
1737750027578041300,1.598041259765625,-0.4994049072265625,0.758209228515625,0.15643310546875
1737750027588109600,1.608109619140625,-0.5019989013671875,0.7576141357421875,0.1607208251953125
1737750027598176500,1.618176513671875,-0.5055694580078125,0.743011474609375,0.1635894775390625
1737750027608244500,1.628244384765625,-0.519256591796875,0.7281341552734375,0.1693115234375
1737750027618312400,1.6383125,-0.535125732421875,0.723388671875,0.177520751953125
1737750027628380400,1.64838037109375,-0.541015625,0.730072021484375,0.1851959228515625
1737750027638447400,1.658447265625,-0.5441741943359375,0.73663330078125,0.19482421875
1737750027648515600,1.668515625,-0.5493011474609375,0.738922119140625,0.2005615234375
1737750027658583300,1.678583251953125,-0.550262451171875,0.739288330078125,0.1999053955078125
1737750027668650500,1.688650390625,-0.549835205078125,0.7420654296875,0.2017974853515625
1737750027678718200,1.69871826171875,-0.5467529296875,0.761962890625,0.2118988037109375
1737750027688786400,1.708786376953125,-0.5502471923828125,0.7883758544921875,0.225921630859375
1737750027698854400,1.7188544921875,-0.5593719482421875,0.8118743896484375,0.2330169677734375
1737750027708921300,1.72892138671875,-0.56512451171875,0.8329315185546875,0.2345428466796875
1737750027718989300,1.7389892578125,-0.570892333984375,0.8508758544921875,0.2352142333984375
1737750027729057300,1.749057373046875,-0.5740509033203125,0.8654632568359375,0.2366485595703125
1737750027739125500,1.75912548828125,-0.571502685546875,0.8857269287109375,0.24066162109375
1737750027749192400,1.7691923828125,-0.5684967041015625,0.9119720458984375,0.2523651123046875
1737750027759260400,1.779260498046875,-0.5676422119140625,0.935546875,0.272064208984375
1737750027769328400,1.789328369140625,-0.565460205078125,0.941680908203125,0.2909088134765625
1737750027779396400,1.799396240234375,-0.5551910400390625,0.9138031005859375,0.2984466552734375
1737750027789463300,1.80946337890625,-0.54608154296875,0.8618011474609375,0.2953338623046875
1737750027799531500,1.819531494140625,-0.538848876953125,0.8127288818359375,0.2742462158203125
1737750027809599500,1.829599609375,-0.529266357421875,0.778594970703125,0.2512359619140625
1737750027819667500,1.83966748046875,-0.5155181884765625,0.7631683349609375,0.23358154296875
1737750027829734400,1.849734375,-0.496856689453125,0.770263671875,0.2296142578125
1737750027839802600,1.859802734375,-0.4817657470703125,0.7908477783203125,0.2362823486328125
1737750027849870300,1.869870361328125,-0.469085693359375,0.8194732666015625,0.236724853515625
1737750027859937500,1.8799375,-0.46063232421875,0.8540191650390625,0.232025146484375
1737750027870005200,1.890005126953125,-0.456756591796875,0.88201904296875,0.2257843017578125
1737750027880073200,1.9000732421875,-0.4594573974609375,0.9156494140625,0.2303314208984375
1737750027890141400,1.910141357421875,-0.4694366455078125,0.9420013427734375,0.2431793212890625
1737750027900208400,1.92020849609375,-0.48626708984375,0.95751953125,0.248138427734375
1737750027910276400,1.9302763671875,-0.506011962890625,0.9632415771484375,0.2443695068359375
1737750027920344300,1.94034423828125,-0.5258941650390625,0.961090087890625,0.24114990234375
1737750027930412300,1.950412353515625,-0.5417633056640625,0.9531097412109375,0.241607666015625
1737750027940479200,1.960479248046875,-0.55218505859375,0.942657470703125,0.24114990234375
1737750027950547500,1.97054736328125,-0.557525634765625,0.92376708984375,0.2389068603515625
1737750027960615400,1.980615478515625,-0.552764892578125,0.898468017578125,0.2357177734375
1737750027970683400,1.990683349609375,-0.5433197021484375,0.873748779296875,0.224609375
1737750027980750300,2.000750244140625,-0.5319061279296875,0.8511505126953125,0.2080230712890625
1737750027990818600,2.010818603515625,-0.5155181884765625,0.8377838134765625,0.19207763671875
1737750028000886500,2.020886474609375,-0.4937744140625,0.839141845703125,0.18597412109375
1737750028010954500,2.03095458984375,-0.474090576171875,0.84625244140625,0.19073486328125
1737750028021021400,2.041021484375,-0.45697021484375,0.852447509765625,0.204681396484375
1737750028031089400,2.05108935546875,-0.4395294189453125,0.8563079833984375,0.2174224853515625
1737750028041157400,2.061157470703125,-0.429595947265625,0.8627166748046875,0.2296600341796875
1737750028051225300,2.071225341796875,-0.4207000732421875,0.8643951416015625,0.23687744140625
1737750028061292300,2.081292236328125,-0.4149627685546875,0.86004638671875,0.243072509765625
1737750028071360300,2.0913603515625,-0.4183502197265625,0.8587646484375,0.2537689208984375
1737750028081428200,2.10142822265625,-0.424713134765625,0.864013671875,0.2724609375
1737750028091496400,2.111496337890625,-0.4317169189453125,0.867279052734375,0.2919158935546875
1737750028101563400,2.1215634765625,-0.4397125244140625,0.87518310546875,0.3139190673828125
1737750028111631400,2.13163134765625,-0.4488677978515625,0.8795928955078125,0.3369293212890625
1737750028121699300,2.14169921875,-0.461151123046875,0.873077392578125,0.3558197021484375
1737750028131766300,2.151766357421875,-0.47198486328125,0.8557281494140625,0.359161376953125
1737750028141834500,2.16183447265625,-0.479705810546875,0.836883544921875,0.3625640869140625
1737750028151902500,2.17190234375,-0.4848785400390625,0.82525634765625,0.3792877197265625
1737750028161970400,2.181970458984375,-0.4954833984375,0.8144073486328125,0.397216796875
1737750028172037400,2.192037353515625,-0.5045013427734375,0.806549072265625,0.40911865234375
1737750028182105300,2.202105224609375,-0.509063720703125,0.80194091796875,0.40447998046875
1737750028192173600,2.212173583984375,-0.5089111328125,0.7967681884765625,0.3985595703125
1737750028202241500,2.222241455078125,-0.5077362060546875,0.7965850830078125,0.386932373046875
1737750028212308500,2.23230859375,-0.503448486328125,0.8067779541015625,0.37664794921875
1737750028222376400,2.24237646484375,-0.4947509765625,0.823760986328125,0.372039794921875
1737750028232444200,2.252444091796875,-0.4918212890625,0.8304595947265625,0.365020751953125
1737750028242512400,2.262512451171875,-0.4877777099609375,0.8322296142578125,0.36383056640625
1737750028252579300,2.272579345703125,-0.4791259765625,0.825103759765625,0.3586273193359375
1737750028262647300,2.282647216796875,-0.470855712890625,0.8249359130859375,0.366851806640625
1737750028272715300,2.29271533203125,-0.4662628173828125,0.8273162841796875,0.36676025390625
1737750028282783500,2.302783447265625,-0.461395263671875,0.8275604248046875,0.3605804443359375
1737750028292850400,2.312850341796875,-0.4601287841796875,0.8192291259765625,0.3502044677734375
1737750028302918400,2.32291845703125,-0.4568939208984375,0.8083648681640625,0.3382720947265625
1737750028312986400,2.332986328125,-0.4579925537109375,0.8029022216796875,0.3300018310546875
1737750028323054300,2.343054443359375,-0.460601806640625,0.8070068359375,0.318023681640625
1737750028333121300,2.353121337890625,-0.4593963623046875,0.8250579833984375,0.3011474609375
1737750028343189500,2.363189453125,-0.45654296875,0.845123291015625,0.2977142333984375
1737750028353257500,2.373257568359375,-0.4551239013671875,0.8321990966796875,0.263916015625
1737750028363324400,2.383324462890625,-0.4476165771484375,0.811431884765625,0.238433837890625
1737750028373392400,2.393392333984375,-0.440032958984375,0.785125732421875,0.211029052734375
1737750028383460400,2.40346044921875,-0.4345703125,0.7877044677734375,0.19976806640625
1737750028393528600,2.413528564453125,-0.4257354736328125,0.811126708984375,0.1966094970703125
1737750028403595500,2.423595458984375,-0.456268310546875,0.7537078857421875,0.16259765625
1737750028413663500,2.43366357421875,-0.4717864990234375,0.7712860107421875,0.1474456787109375
1737750028423735800,2.44373583984375,-0.498931884765625,0.8524627685546875,0.1781158447265625
1737750028433803800,2.4538037109375,-0.533538818359375,0.930328369140625,0.2147674560546875
1737750028443870700,2.46387060546875,-0.561187744140625,1.0001983642578125,0.248809814453125
1737750028453938700,2.473938720703125,-0.5739593505859375,0.9658050537109375,0.2680206298828125
1737750028464006700,2.484006591796875,-0.605865478515625,0.8527069091796875,0.2471923828125
1737750028474075000,2.494074951171875,-0.6375274658203125,0.7611541748046875,0.20574951171875
1737750028484141800,2.504141845703125,-0.67523193359375,0.7348785400390625,0.176513671875
1737750028494209800,2.514209716796875,-0.7057342529296875,0.7667236328125,0.1597137451171875
1737750028504277800,2.52427783203125,-0.7144317626953125,0.8090667724609375,0.1546783447265625
1737750028514346000,2.534345947265625,-0.7256317138671875,0.835205078125,0.159820556640625
1737750028524413000,2.544412841796875,-0.7342071533203125,0.8446197509765625,0.164520263671875
1737750028534481000,2.55448095703125,-0.738250732421875,0.8289337158203125,0.1603546142578125
1737750028544548900,2.564548828125,-0.7450103759765625,0.7772369384765625,0.145843505859375
1737750028554616600,2.574616455078125,-0.7480926513671875,0.7200164794921875,0.127716064453125
1737750028564683800,2.584683837890625,-0.7347259521484375,0.69610595703125,0.1141510009765625
1737750028574751700,2.594751708984375,-0.7137451171875,0.6854095458984375,0.1064300537109375
1737750028584819700,2.60481982421875,-0.6963043212890625,0.6670989990234375,0.09375
1737750028594886700,2.61488671875,-0.6800537109375,0.6536407470703125,0.079559326171875
1737750028604954600,2.62495458984375,-0.6669769287109375,0.6448516845703125,0.07208251953125
1737750028615022600,2.635022705078125,-0.6606903076171875,0.6453094482421875,0.0704193115234375
1737750028625090800,2.6450908203125,-0.65777587890625,0.6568756103515625,0.072113037109375
1737750028635157800,2.65515771484375,-0.655364990234375,0.6661224365234375,0.0772247314453125
1737750028645225700,2.665225830078125,-0.6529388427734375,0.661590576171875,0.08428955078125
1737750028655293700,2.675293701171875,-0.6594085693359375,0.664398193359375,0.08978271484375
1737750028665362000,2.68536181640625,-0.6583099365234375,0.6796875,0.0923919677734375
1737750028675428900,2.695428955078125,-0.65472412109375,0.6836700439453125,0.0948944091796875
1737750028685496800,2.705496826171875,-0.6506500244140625,0.678863525390625,0.0998687744140625
1737750028695564800,2.715564697265625,-0.65057373046875,0.675872802734375,0.1025238037109375
1737750028705632800,2.7256328125,-0.6480865478515625,0.6727447509765625,0.105926513671875
1737750028715699700,2.73569970703125,-0.642822265625,0.6952362060546875,0.13427734375
1737750028725768000,2.745767822265625,-0.6588897705078125,0.6625518798828125,0.1304779052734375
1737750028735836000,2.7558359375,-0.65435791015625,0.6272430419921875,0.1175689697265625
1737750028745903600,2.765903564453125,-0.6505279541015625,0.621246337890625,0.1199493408203125
1737750028755970800,2.775970703125,-0.660491943359375,0.61883544921875,0.12493896484375
1737750028766038800,2.786038818359375,-0.6715850830078125,0.6275634765625,0.1359710693359375
1737750028776106800,2.796106689453125,-0.685791015625,0.6338653564453125,0.1578521728515625
1737750028786174700,2.8061748046875,-0.697479248046875,0.640594482421875,0.1861572265625
1737750028796241700,2.81624169921875,-0.706695556640625,0.6455078125,0.20831298828125
1737750028806309600,2.8263095703125,-0.714447021484375,0.6313018798828125,0.212921142578125
1737750028816377900,2.8363779296875,-0.72125244140625,0.616363525390625,0.2139129638671875
1737750028826445800,2.84644580078125,-0.710235595703125,0.6137237548828125,0.219024658203125
1737750028836512800,2.8565126953125,-0.704193115234375,0.6046600341796875,0.21319580078125
1737750028846580700,2.866580810546875,-0.701934814453125,0.590606689453125,0.2057037353515625
1737750028856648700,2.876648681640625,-0.6967926025390625,0.5839385986328125,0.20062255859375
1737750028866715600,2.886715576171875,-0.6946258544921875,0.5811309814453125,0.1986236572265625
1737750028876783900,2.896783935546875,-0.6954498291015625,0.5740509033203125,0.205322265625
1737750028886851800,2.906851806640625,-0.6942901611328125,0.5596466064453125,0.21356201171875
1737750028896919800,2.916919921875,-0.6929931640625,0.548583984375,0.2089385986328125
1737750028906986800,2.92698681640625,-0.6976470947265625,0.5346832275390625,0.1920166015625
1737750028917054700,2.9370546875,-0.7052154541015625,0.5171966552734375,0.172882080078125
1737750028927123000,2.947123046875,-0.6983795166015625,0.5052947998046875,0.1650238037109375
1737750028937190700,2.957190673828125,-0.7042694091796875,0.502105712890625,0.165496826171875
1737750028947257900,2.9672578125,-0.6641845703125,0.497039794921875,0.1655731201171875
1737750028957325800,2.977325927734375,-0.6674957275390625,0.5019073486328125,0.171539306640625
1737750028967393800,2.987393798828125,-0.6593170166015625,0.519561767578125,0.1826324462890625
1737750028977461800,2.997461669921875,-0.6565093994140625,0.53948974609375,0.200469970703125
1737750028987528700,3.00752880859375,-0.6544189453125,0.5815582275390625,0.2326812744140625
1737750028997596700,3.0175966796875,-0.658935546875,0.645355224609375,0.2684326171875
1737750029007664600,3.02766455078125,-0.6670074462890625,0.7161865234375,0.308074951171875
1737750029017732900,3.03773291015625,-0.6801910400390625,0.7969207763671875,0.3470916748046875
1737750029027799800,3.0477998046875,-0.702392578125,0.899139404296875,0.3823394775390625
1737750029037867800,3.05786767578125,-0.715576171875,0.99420166015625,0.424072265625
1737750029047935700,3.067935791015625,-0.72833251953125,1.0175018310546875,0.455047607421875
1737750029058003700,3.078003662109375,-0.750274658203125,0.9621429443359375,0.4504852294921875
1737750029068070700,3.088070556640625,-0.78228759765625,0.9038238525390625,0.4154815673828125
1737750029078139000,3.098138916015625,-0.7948455810546875,0.863861083984375,0.37353515625
1737750029088206800,3.108206787109375,-0.7818756103515625,0.836639404296875,0.3420257568359375
1737750029098273800,3.118273681640625,-0.7540435791015625,0.8278961181640625,0.3189849853515625
1737750029108341800,3.128341796875,-0.7038726806640625,0.826904296875,0.3052825927734375
1737750029118410000,3.138409912109375,-0.6466217041015625,0.8140716552734375,0.2953338623046875
1737750029128477700,3.148477783203125,-0.6033477783203125,0.7949371337890625,0.2825164794921875
1737750029138545000,3.158544921875,-0.561492919921875,0.7806243896484375,0.267578125
1737750029148612900,3.16861279296875,-0.5225677490234375,0.7908782958984375,0.2664794921875
1737750029158680600,3.1786806640625,-0.50189208984375,0.8154296875,0.2677154541015625
1737750029168748800,3.188748779296875,-0.48284912109375,0.8435516357421875,0.2681884765625
1737750029178815700,3.198815673828125,-0.46563720703125,0.857696533203125,0.282440185546875
1737750029188883700,3.2088837890625,-0.4498291015625,0.86285400390625,0.304351806640625
1737750029198951700,3.21895166015625,-0.44580078125,0.865234375,0.3165283203125
1737750029209019600,3.22901953125,-0.4480438232421875,0.8733062744140625,0.3086700439453125
1737750029219086800,3.2390869140625,-0.4546661376953125,0.885223388671875,0.2823638916015625
1737750029229154800,3.24915478515625,-0.4513702392578125,0.9049835205078125,0.24810791015625
1737750029239222800,3.259222900390625,-0.4553375244140625,0.92694091796875,0.22412109375
1737750029249290800,3.269290771484375,-0.469085693359375,0.9361114501953125,0.2091064453125
1737750029259357700,3.279357666015625,-0.479827880859375,0.9405517578125,0.1990203857421875
1737750029269426000,3.289426025390625,-0.4855499267578125,0.9369049072265625,0.186279296875
1737750029279494000,3.299493896484375,-0.502197265625,0.917327880859375,0.1719818115234375
1737750029289561900,3.309561767578125,-0.5135650634765625,0.900360107421875,0.1621856689453125
1737750029299628800,3.31962890625,-0.5171356201171875,0.8939208984375,0.1650848388671875
1737750029309696800,3.32969677734375,-0.5175323486328125,0.8878173828125,0.1745147705078125
1737750029319764700,3.3397646484375,-0.515655517578125,0.8827667236328125,0.19189453125
1737750029329832000,3.34983203125,-0.505035400390625,0.8672332763671875,0.213958740234375
1737750029339900000,3.35989990234375,-0.495880126953125,0.844146728515625,0.21099853515625
1737750029349967600,3.369967529296875,-0.494049072265625,0.828033447265625,0.20587158203125
1737750029360035600,3.38003564453125,-0.4883575439453125,0.8372039794921875,0.2021484375
1737750029370102800,3.390102783203125,-0.4814453125,0.85931396484375,0.1968841552734375
1737750029380170800,3.400170654296875,-0.4640350341796875,0.8675079345703125,0.1989593505859375
1737750029390238700,3.41023876953125,-0.4552459716796875,0.83404541015625,0.229736328125
1737750029400306700,3.420306640625,-0.4520111083984375,0.7841644287109375,0.284088134765625
1737750029410373600,3.43037353515625,-0.4514617919921875,0.7541961669921875,0.3170013427734375
1737750029420441000,3.440441162109375,-0.4675140380859375,0.765411376953125,0.29046630859375
1737750029430509300,3.45050927734375,-0.4575347900390625,0.814727783203125,0.220245361328125
1737750029440577300,3.460577392578125,-0.421905517578125,0.903656005859375,0.151580810546875
1737750029450644200,3.470644287109375,-0.3949737548828125,0.94830322265625,0.1003875732421875
1737750029460712200,3.480712158203125,-0.3766937255859375,0.9336395263671875,0.1041717529296875
1737750029470780400,3.490780517578125,-0.3698577880859375,0.8907470703125,0.17376708984375
1737750029480848400,3.500848388671875,-0.3763580322265625,0.853790283203125,0.2469329833984375
1737750029490915300,3.510915283203125,-0.390594482421875,0.825408935546875,0.280426025390625
1737750029500983300,3.5209833984375,-0.406768798828125,0.803375244140625,0.2852020263671875
1737750029511051300,3.53105126953125,-0.426116943359375,0.8067474365234375,0.27825927734375
1737750029521119200,3.541119140625,-0.439697265625,0.831756591796875,0.2651214599609375
1737750029531186400,3.5511865234375,-0.4411163330078125,0.8542633056640625,0.24969482421875
1737750029541254400,3.56125439453125,-0.4408721923828125,0.8714447021484375,0.2426910400390625
1737750029551322000,3.571322021484375,-0.4441986083984375,0.8948211669921875,0.2525482177734375
1737750029561390000,3.58139013671875,-0.4569549560546875,0.9320220947265625,0.2743988037109375
1737750029571457300,3.591457275390625,-0.4700775146484375,0.967193603515625,0.307891845703125
1737750029581525200,3.601525146484375,-0.4782562255859375,0.97998046875,0.34368896484375
1737750029591593200,3.61159326171875,-0.491729736328125,0.9680938720703125,0.3676300048828125
1737750029601661200,3.6216611328125,-0.4955902099609375,0.9371337890625,0.3785400390625
1737750029611728100,3.63172802734375,-0.4936065673828125,0.8908538818359375,0.374359130859375
1737750029621796400,3.64179638671875,-0.49267578125,0.862060546875,0.358978271484375
1737750029631864300,3.6518642578125,-0.496856689453125,0.8685150146484375,0.3435821533203125
1737750029641932300,3.661932373046875,-0.495147705078125,0.89117431640625,0.3174591064453125
1737750029651999200,3.671999267578125,-0.502105712890625,0.9211883544921875,0.2913360595703125
1737750029662067200,3.682067138671875,-0.5253753662109375,0.9632568359375,0.2733154296875
1737750029672135400,3.692135498046875,-0.5643310546875,1.0217742919921875,0.2586669921875
1737750029682202400,3.702202392578125,-0.5682830810546875,1.0316162109375,0.2482147216796875
1737750029692270300,3.712270263671875,-0.5782470703125,0.9366607666015625,0.2391815185546875
1737750029702338300,3.72233837890625,-0.617889404296875,0.7916259765625,0.2265472412109375
1737750029712406300,3.73240625,-0.6270751953125,0.6798248291015625,0.213409423828125
1737750029722473500,3.742473388671875,-0.608489990234375,0.6354217529296875,0.20782470703125
1737750029732541400,3.75254150390625,-0.5960845947265625,0.636749267578125,0.2125701904296875
1737750029742609200,3.762609130859375,-0.5840911865234375,0.6678619384765625,0.214202880859375
1737750029752677000,3.772677001953125,-0.5942840576171875,0.687530517578125,0.1969451904296875
1737750029762744000,3.782744140625,-0.6032562255859375,0.6777191162109375,0.1699066162109375
1737750029772812300,3.792812255859375,-0.621124267578125,0.6613311767578125,0.1199951171875
1737750029782880300,3.80288037109375,-0.639801025390625,0.639739990234375,0.03515625
1737750029792948200,3.8129482421875,-0.637298583984375,0.637725830078125,-0.0581207275390625
1737750029803015200,3.82301513671875,-0.633636474609375,0.6615142822265625,-0.1238555908203125
1737750029813083100,3.833083251953125,-0.6387176513671875,0.6823883056640625,-0.1250152587890625
1737750029823151400,3.8431513671875,-0.6507110595703125,0.689453125,-0.0746917724609375
1737750029833219300,3.85321923828125,-0.6786346435546875,0.6824951171875,-0.0169219970703125
1737750029843286300,3.863286376953125,-0.7061920166015625,0.6781005859375,0.028961181640625
1737750029853354200,3.873354248046875,-0.729644775390625,0.693328857421875,0.0821533203125
1737750029863422200,3.883422119140625,-0.7379150390625,0.71875,0.151824951171875
1737750029873490400,3.893490478515625,-0.7328033447265625,0.722137451171875,0.2176055908203125
1737750029883557400,3.903557373046875,-0.7313690185546875,0.7005462646484375,0.2636260986328125
1737750029893625300,3.913625244140625,-0.72930908203125,0.6681060791015625,0.282867431640625
1737750029903693300,3.923693359375,-0.7227020263671875,0.6403350830078125,0.2745208740234375
1737750029913761300,3.93376123046875,-0.710723876953125,0.6292724609375,0.24310302734375
1737750029923828500,3.943828369140625,-0.687744140625,0.631195068359375,0.2058258056640625
1737750029933896200,3.953896240234375,-0.6518402099609375,0.6421356201171875,0.1773834228515625
1737750029943964200,3.963964111328125,-0.62109375,0.629608154296875,0.151580810546875
1737750029954032000,3.9740322265625,-0.5993194580078125,0.59942626953125,0.121429443359375
1737750029964099000,3.98409912109375,-0.584381103515625,0.576507568359375,0.087890625
1737750029974167300,3.994167236328125,-0.5922088623046875,0.5716094970703125,0.0552978515625
1737750029984235300,4.0042353515625,-0.5993194580078125,0.5851287841796875,0.02435302734375
1737750029994303200,4.01430322265625,-0.612274169921875,0.5992431640625,-0.0031585693359375
1737750030004370200,4.0243701171875,-0.6310577392578125,0.601531982421875,-0.01617431640625
1737750030014438100,4.034438232421875,-0.6463775634765625,0.6010894775390625,-0.0159454345703125
1737750030024506400,4.04450634765625,-0.6691741943359375,0.5970306396484375,-0.0042266845703125
1737750030034573300,4.0545732421875,-0.694580078125,0.5882415771484375,0.00531005859375
1737750030044641300,4.064641357421875,-0.711029052734375,0.5818023681640625,0.0112457275390625
1737750030054709200,4.074709228515625,-0.7126312255859375,0.58319091796875,0.0117645263671875
1737750030064777500,4.084777587890625,-0.6986541748046875,0.5943603515625,0.005645751953125
1737750030074844400,4.094844482421875,-0.6845245361328125,0.622344970703125,0.0075225830078125
1737750030084912400,4.104912353515625,-0.6715087890625,0.6647186279296875,0.021392822265625
1737750030094980400,4.11498046875,-0.650482177734375,0.7074737548828125,0.045257568359375
1737750030105048000,4.125048095703125,-0.62640380859375,0.73406982421875,0.0711517333984375
1737750030115115300,4.135115234375,-0.619903564453125,0.753875732421875,0.081939697265625
1737750030125183200,4.145183349609375,-0.6222991943359375,0.7970733642578125,0.0737762451171875
1737750030135251200,4.155251220703125,-0.615478515625,0.8856353759765625,0.0591583251953125
1737750030145319200,4.165319091796875,-0.5894622802734375,0.9737548828125,0.046630859375
1737750030155386000,4.17538623046875,-0.5616455078125,0.998260498046875,0.048095703125
1737750030165454300,4.185454345703125,-0.5582122802734375,0.966644287109375,0.057586669921875
1737750030175522300,4.195522216796875,-0.5684814453125,0.919586181640625,0.06365966796875
1737750030185590300,4.20559033203125,-0.5592803955078125,0.8806304931640625,0.0674285888671875
1737750030195657200,4.2156572265625,-0.5337371826171875,0.855560302734375,0.0663604736328125
1737750030205725200,4.22572509765625,-0.4978790283203125,0.853546142578125,0.06207275390625
1737750030215793400,4.23579345703125,-0.4692840576171875,0.872222900390625,0.064971923828125
1737750030225861400,4.245861328125,-0.4603118896484375,0.8999786376953125,0.071441650390625
1737750030235928300,4.25592822265625,-0.460906982421875,0.9318695068359375,0.073486328125
1737750030245996300,4.265996337890625,-0.453216552734375,0.962249755859375,0.0673675537109375
1737750030256064300,4.276064208984375,-0.4363555908203125,0.98309326171875,0.0613861083984375
1737750030266132500,4.286132568359375,-0.4247283935546875,0.988861083984375,0.0429534912109375
1737750030276199400,4.296199462890625,-0.4136962890625,0.9744873046875,0.0259246826171875
1737750030286267400,4.306267333984375,-0.3932647705078125,0.9516448974609375,0.014495849609375
1737750030296335000,4.316335205078125,-0.36199951171875,0.924560546875,-0.00762939453125
1737750030306403000,4.326403076171875,-0.3342437744140625,0.885040283203125,-0.037200927734375
1737750030316470300,4.33647021484375,-0.30230712890625,0.846649169921875,-0.0756683349609375
1737750030326538200,4.346538330078125,-0.276641845703125,0.830108642578125,-0.126678466796875
1737750030336606200,4.356606201171875,-0.27001953125,0.85040283203125,-0.1764678955078125
1737750030346674200,4.366674072265625,-0.2846832275390625,0.8829498291015625,-0.198486328125
1737750030356741000,4.3767412109375,-0.3030853271484375,0.8943939208984375,-0.1767120361328125
1737750030366809300,4.386809326171875,-0.313385009765625,0.8887939453125,-0.1153717041015625
1737750030376877300,4.396877197265625,-0.324493408203125,0.8889617919921875,-0.0389556884765625
1737750030386945300,4.4069453125,-0.3316497802734375,0.899139404296875,0.0292816162109375
1737750030397012200,4.41701220703125,-0.3394927978515625,0.8997955322265625,0.078125
1737750030407080200,4.427080078125,-0.35211181640625,0.8826904296875,0.09820556640625
1737750030417148400,4.4371484375,-0.3524322509765625,0.8618011474609375,0.103759765625
1737750030427216600,4.447216552734375,-0.34271240234375,0.8473968505859375,0.1066741943359375
1737750030437283800,4.457283935546875,-0.3312835693359375,0.8393707275390625,0.1077880859375
1737750030447351800,4.467351806640625,-0.3257293701171875,0.836212158203125,0.1091461181640625
1737750030457419500,4.47741943359375,-0.3237152099609375,0.840728759765625,0.1114501953125
1737750030467487500,4.487487548828125,-0.3219451904296875,0.85052490234375,0.1082763671875
1737750030477554400,4.497554443359375,-0.315460205078125,0.86199951171875,0.09686279296875
1737750030487622700,4.50762255859375,-0.2997283935546875,0.8824462890625,0.083160400390625
1737750030497690600,4.517690673828125,-0.2852630615234375,0.9061431884765625,0.0745086669921875
1737750030507757600,4.527757568359375,-0.269317626953125,0.929229736328125,0.071441650390625
1737750030517825500,4.537825439453125,-0.258819580078125,0.9479827880859375,0.065582275390625
1737750030527893500,4.5478935546875,-0.2535247802734375,0.960479736328125,0.052520751953125
1737750030537961700,4.557961669921875,-0.2444000244140625,0.959228515625,0.03802490234375
1737750030548028700,4.568028564453125,-0.23822021484375,0.9512481689453125,0.0256805419921875
1737750030558096600,4.5780966796875,-0.2355499267578125,0.93682861328125,0.014801025390625
1737750030568164600,4.58816455078125,-0.2325592041015625,0.919891357421875,0.020050048828125
1737750030578232600,4.598232666015625,-0.2349700927734375,0.9078369140625,0.03570556640625
1737750030588299800,4.6082998046875,-0.2407989501953125,0.902496337890625,0.0511322021484375
1737750030598367700,4.61836767578125,-0.246124267578125,0.908721923828125,0.067657470703125
1737750030608435700,4.628435791015625,-0.2467041015625,0.93011474609375,0.08642578125
1737750030618503700,4.638503662109375,-0.2422637939453125,0.95697021484375,0.10888671875
1737750030628570600,4.648570556640625,-0.238983154296875,0.9795074462890625,0.125030517578125
1737750030638638800,4.658638916015625,-0.2383270263671875,0.9873046875,0.126220703125
1737750030648706600,4.66870654296875,-0.2351226806640625,0.9842529296875,0.119171142578125
1737750030658774500,4.6787744140625,-0.2279510498046875,0.9825439453125,0.1041412353515625
1737750030668841700,4.688841796875,-0.2205047607421875,0.9879150390625,0.095184326171875
1737750030678909400,4.698909423828125,-0.2201080322265625,0.993560791015625,0.0936279296875
1737750030688977700,4.708977783203125,-0.216278076171875,0.995941162109375,0.0901641845703125
1737750030699045600,4.719045654296875,-0.2022552490234375,1.0047607421875,0.0891571044921875
1737750030709112600,4.729112548828125,-0.1844635009765625,1.018157958984375,0.096588134765625
1737750030719180500,4.7391806640625,-0.1742401123046875,1.036376953125,0.1075592041015625
1737750030729248800,4.749248779296875,-0.1752777099609375,1.0623626708984375,0.1172332763671875
1737750030739316700,4.759316650390625,-0.1816558837890625,1.08831787109375,0.121337890625
1737750030749383700,4.7693837890625,-0.1895599365234375,1.101959228515625,0.1186065673828125
1737750030759451600,4.77945166015625,-0.1975250244140625,1.09613037109375,0.118865966796875
1737750030769519600,4.78951953125,-0.2056121826171875,1.0859832763671875,0.1229400634765625
1737750030779587800,4.799587890625,-0.2136993408203125,1.07958984375,0.130279541015625
1737750030789654800,4.80965478515625,-0.2231903076171875,1.067291259765625,0.13067626953125
1737750030799722800,4.81972265625,-0.2360382080078125,1.05242919921875,0.1264801025390625
1737750030809790700,4.829790771484375,-0.249237060546875,1.0374603271484375,0.119415283203125
1737750030819858400,4.8398583984375,-0.269256591796875,1.031463623046875,0.1141815185546875
1737750030829925600,4.849925537109375,-0.3018035888671875,1.044677734375,0.1058349609375
1737750030839993600,4.85999365234375,-0.3247833251953125,1.0633392333984375,0.0956268310546875
1737750030850061600,4.8700615234375,-0.352569580078125,1.0777130126953125,0.0959320068359375
1737750030860129500,4.880129638671875,-0.39208984375,1.083221435546875,0.0954437255859375
1737750030870196500,4.890196533203125,-0.43939208984375,1.0904541015625,0.0931243896484375
1737750030880264700,4.9002646484375,-0.494842529296875,1.1064453125,0.0888671875
1737750030890332700,4.910332763671875,-0.550994873046875,1.1177825927734375,0.0863800048828125
1737750030900400600,4.920400634765625,-0.605987548828125,1.1205291748046875,0.0940093994140625
1737750030910467600,4.930467529296875,-0.6427001953125,1.111236572265625,0.103179931640625
1737750030920535600,4.94053564453125,-0.6573028564453125,1.0860137939453125,0.1052398681640625
1737750030930603800,4.950603759765625,-0.6698150634765625,1.0528564453125,0.0825347900390625
1737750030940671700,4.960671630859375,-0.6731414794921875,1.019622802734375,0.0309600830078125
1737750030950738700,4.97073876953125,-0.667144775390625,1.007476806640625,-0.019866943359375
1737750030960806700,4.980806640625,-0.647216796875,1.0285186767578125,-0.0603179931640625
1737750030970874600,4.99087451171875,-0.612030029296875,1.065948486328125,-0.090911865234375
1737750030980942800,5.00094287109375,-0.5677490234375,1.0995635986328125,-0.1143341064453125
1737750030991009800,5.011009765625,-0.513427734375,1.106292724609375,-0.1395721435546875
1737750031001077800,5.021077880859375,-0.4587249755859375,1.0886993408203125,-0.1741485595703125
1737750031011145500,5.0311455078125,-0.40191650390625,1.063140869140625,-0.21697998046875
1737750031021213400,5.04121337890625,-0.3551483154296875,1.0398712158203125,-0.2695159912109375
1737750031031280600,5.05128076171875,-0.3151702880859375,1.0225830078125,-0.32135009765625
1737750031041348600,5.0613486328125,-0.2788238525390625,1.0160675048828125,-0.3646240234375
1737750031051416600,5.07141650390625,-0.26226806640625,1.023834228515625,-0.3987579345703125
1737750031061484500,5.081484619140625,-0.2516021728515625,1.0336761474609375,-0.424957275390625
1737750031071551500,5.091551513671875,-0.2375335693359375,1.018524169921875,-0.4378509521484375
1737750031081619700,5.10161962890625,-0.23162841796875,0.980743408203125,-0.442535400390625
1737750031091687700,5.111687744140625,-0.233367919921875,0.94451904296875,-0.4507598876953125
1737750031101755600,5.121755615234375,-0.2374420166015625,0.93316650390625,-0.457244873046875
1737750031111822600,5.131822509765625,-0.2470245361328125,0.9414215087890625,-0.46380615234375
1737750031121890600,5.141890625,-0.2571258544921875,0.9417266845703125,-0.4688262939453125
1737750031131958800,5.151958740234375,-0.2633209228515625,0.9290313720703125,-0.467742919921875
1737750031142026800,5.16202685546875,-0.2649383544921875,0.9152679443359375,-0.45587158203125
1737750031152093700,5.17209375,-0.2716522216796875,0.9037933349609375,-0.4348297119140625
1737750031162161700,5.18216162109375,-0.277740478515625,0.8916168212890625,-0.411041259765625
1737750031172229600,5.192229736328125,-0.28173828125,0.881256103515625,-0.386383056640625
1737750031182297600,5.202297607421875,-0.28631591796875,0.8767547607421875,-0.3647003173828125
1737750031192364800,5.21236474609375,-0.2849884033203125,0.870758056640625,-0.34869384765625
1737750031202432500,5.2224326171875,-0.280609130859375,0.8616485595703125,-0.333831787109375
1737750031212500500,5.23250048828125,-0.2791595458984375,0.8502044677734375,-0.3241729736328125
1737750031222568700,5.242568603515625,-0.28350830078125,0.8441925048828125,-0.321075439453125
1737750031232635600,5.2526357421875,-0.284332275390625,0.8458251953125,-0.3186187744140625
1737750031242703600,5.26270361328125,-0.27685546875,0.8499603271484375,-0.3109130859375
1737750031252771600,5.272771484375,-0.2719268798828125,0.85137939453125,-0.299468994140625
1737750031262839600,5.282839599609375,-0.2725982666015625,0.8497314453125,-0.2924346923828125
1737750031272906500,5.292906494140625,-0.2774810791015625,0.848785400390625,-0.2836456298828125
1737750031282974700,5.302974609375,-0.282562255859375,0.8465576171875,-0.2755889892578125
1737750031293042700,5.313042724609375,-0.2911224365234375,0.8439178466796875,-0.265472412109375
1737750031303110700,5.323110595703125,-0.3057403564453125,0.8436431884765625,-0.258880615234375
1737750031313177600,5.333177490234375,-0.3199005126953125,0.8467559814453125,-0.25146484375
1737750031323245600,5.34324560546875,-0.3305206298828125,0.8477783203125,-0.241790771484375
1737750031333313800,5.353313720703125,-0.3395233154296875,0.84442138671875,-0.228485107421875
1737750031343381800,5.3633818359375,-0.3505401611328125,0.84173583984375,-0.21759033203125
1737750031353448700,5.37344873046875,-0.3627777099609375,0.8480377197265625,-0.203948974609375
1737750031363516700,5.3835166015625,-0.37432861328125,0.8585968017578125,-0.189544677734375
1737750031373584600,5.393584716796875,-0.383575439453125,0.8685150146484375,-0.1761322021484375
1737750031383652600,5.403652587890625,-0.3932952880859375,0.872894287109375,-0.1644439697265625
1737750031393719600,5.413719482421875,-0.4025421142578125,0.872650146484375,-0.158660888671875
1737750031403787500,5.42378759765625,-0.4107666015625,0.8699493408203125,-0.1575164794921875
1737750031413855500,5.43385546875,-0.41522216796875,0.8638458251953125,-0.1495208740234375
1737750031423919600,5.443919677734375,-0.41094970703125,0.8539276123046875,-0.1134796142578125
1737750031433986600,5.453986572265625,-0.4001617431640625,0.86614990234375,-0.04925537109375
1737750031444054800,5.4640546875,-0.4766387939453125,0.84521484375,0.0238189697265625
1737750031454122800,5.474122802734375,-0.51214599609375,0.8610076904296875,0.0570068359375
1737750031464190700,5.484190673828125,-0.58447265625,0.8582763671875,0.0635223388671875
1737750031474257700,5.494257568359375,-0.576995849609375,0.841094970703125,0.0381011962890625
1737750031484326000,5.504325927734375,-0.486083984375,0.853851318359375,0.01788330078125
1737750031494393900,5.514393798828125,-0.3570098876953125,0.8413238525390625,-0.0423736572265625
1737750031504461800,5.5244619140625,-0.2214508056640625,0.84185791015625,-0.116668701171875
1737750031514528800,5.53452880859375,-0.2134552001953125,0.8783416748046875,-0.2200469970703125
1737750031524596700,5.5445966796875,-0.362579345703125,0.8826446533203125,-0.29840087890625
1737750031534665000,5.5546650390625,-0.4650115966796875,0.8544158935546875,-0.195343017578125
1737750031544733000,5.56473291015625,-0.4810333251953125,0.8620147705078125,0.0024261474609375
1737750031554799900,5.5747998046875,-0.529266357421875,0.87200927734375,0.1576080322265625
1737750031564867800,5.584867919921875,-0.614288330078125,0.8410186767578125,0.2527923583984375
1737750031574935600,5.594935546875,-0.682373046875,0.8056182861328125,0.3018035888671875
1737750031585003800,5.605003662109375,-0.6851806640625,0.8095245361328125,0.30438232421875
1737750031595070700,5.61507080078125,-0.629852294921875,0.827880859375,0.24267578125
1737750031605138700,5.625138671875,-0.5569305419921875,0.8358154296875,0.1345062255859375
1737750031615206700,5.63520654296875,-0.4996490478515625,0.8341827392578125,0.0135040283203125
1737750031625274600,5.645274658203125,-0.45843505859375,0.8414306640625,-0.081451416015625
1737750031635341800,5.655341796875,-0.4373321533203125,0.86016845703125,-0.1222076416015625
1737750031645409800,5.665409912109375,-0.435638427734375,0.8821563720703125,-0.1044921875
1737750031655477800,5.675477783203125,-0.477874755859375,0.8961944580078125,-0.0406036376953125
1737750031665545700,5.685545654296875,-0.541168212890625,0.8894805908203125,0.0475616455078125
1737750031675612700,5.69561279296875,-0.5854644775390625,0.88372802734375,0.13433837890625
1737750031685681000,5.705680908203125,-0.6268157958984375,0.8870391845703125,0.2029571533203125
1737750031695748900,5.715748779296875,-0.6673736572265625,0.8818817138671875,0.245849609375
1737750031705816800,5.72581689453125,-0.669647216796875,0.873809814453125,0.26495361328125
1737750031715883800,5.7358837890625,-0.63470458984375,0.8780975341796875,0.254791259765625
1737750031725951700,5.74595166015625,-0.5827178955078125,0.8840484619140625,0.21588134765625
1737750031736020000,5.75602001953125,-0.5342559814453125,0.88677978515625,0.1665802001953125
1737750031746087700,5.766087646484375,-0.5062103271484375,0.8914794921875,0.1240997314453125
1737750031756155000,5.77615478515625,-0.475921630859375,0.9167022705078125,0.0963287353515625
1737750031766222600,5.78622265625,-0.4528045654296875,0.96875,0.08709716796875
1737750031776290600,5.79629052734375,-0.4361724853515625,1.01446533203125,0.097412109375
1737750031786358800,5.80635888671875,-0.434051513671875,1.0134735107421875,0.1003875732421875
1737750031796425700,5.81642578125,-0.4322662353515625,0.988037109375,0.087646484375
1737750031806493700,5.82649365234375,-0.4102020263671875,0.973297119140625,0.0700225830078125
1737750031816561700,5.836561767578125,-0.362823486328125,0.97979736328125,0.05615234375
1737750031826630000,5.8466298828125,-0.324859619140625,0.9916839599609375,0.0436553955078125
1737750031836696800,5.85669677734375,-0.3057403564453125,1.0028533935546875,0.025726318359375
1737750031846764800,5.866764892578125,-0.31536865234375,1.011260986328125,0.0157623291015625
1737750031856832800,5.876832763671875,-0.34027099609375,1.0214385986328125,0.0295562744140625
1737750031866900700,5.886900634765625,-0.353729248046875,1.033599853515625,0.065704345703125
1737750031876967700,5.8969677734375,-0.348724365234375,1.0408782958984375,0.1161346435546875
1737750031887036000,5.907035888671875,-0.3303680419921875,1.03692626953125,0.152496337890625
1737750031897104000,5.917103759765625,-0.343505859375,1.01385498046875,0.1455535888671875
1737750031907171800,5.927171875,-0.3473663330078125,0.9939727783203125,0.126678466796875
1737750031917239600,5.937239501953125,-0.33294677734375,1.01251220703125,0.1008758544921875
1737750031927306800,5.947306640625,-0.3395843505859375,1.03717041015625,0.0640869140625
1737750031937374700,5.957374755859375,-0.3480072021484375,1.05609130859375,0.031707763671875
1737750031947442700,5.967442626953125,-0.346160888671875,1.0619659423828125,0.01275634765625
1737750031957510700,5.9775107421875,-0.3413848876953125,1.031005859375,-0.0068817138671875
1737750031967577600,5.98757763671875,-0.334564208984375,0.978057861328125,-0.0383758544921875
1737750031977645800,5.997645751953125,-0.3226470947265625,0.9276580810546875,-0.0771636962890625
1737750031987713800,6.0077138671875,-0.2773284912109375,0.8890380859375,-0.100189208984375
1737750031997781800,6.01778173828125,-0.2570953369140625,0.869781494140625,-0.121551513671875
1737750032007848700,6.0278486328125,-0.25347900390625,0.84320068359375,-0.1611480712890625
1737750032017916700,6.037916748046875,-0.277587890625,0.810272216796875,-0.1797332763671875
1737750032027985000,6.04798486328125,-0.3132781982421875,0.801605224609375,-0.1804046630859375
1737750032038052900,6.058052978515625,-0.3458404541015625,0.798492431640625,-0.187744140625
1737750032048119800,6.068119873046875,-0.3863677978515625,0.7941436767578125,-0.18621826171875
1737750032058187800,6.078187744140625,-0.43084716796875,0.8101654052734375,-0.1709442138671875
1737750032068255700,6.088255859375,-0.45916748046875,0.84710693359375,-0.14324951171875
1737750032078324000,6.098323974609375,-0.48504638671875,0.8799896240234375,-0.09478759765625
1737750032088391000,6.108390869140625,-0.51226806640625,0.8885650634765625,-0.0468902587890625
1737750032098459000,6.118458984375,-0.523040771484375,0.89239501953125,-0.0065155029296875
1737750032108526600,6.128526611328125,-0.531890869140625,0.8817901611328125,0.0146331787109375
1737750032118594800,6.1385947265625,-0.5328216552734375,0.8529815673828125,0.012847900390625
1737750032128661800,6.148661865234375,-0.516632080078125,0.8192901611328125,0.0051422119140625
1737750032138729700,6.158729736328125,-0.50213623046875,0.8097076416015625,0.007965087890625
1737750032148797700,6.168797607421875,-0.490020751953125,0.804473876953125,0.011016845703125
1737750032158865700,6.17886572265625,-0.4550933837890625,0.7896575927734375,0.0034027099609375
1737750032168932600,6.1889326171875,-0.41217041015625,0.81365966796875,-0.01788330078125
1737750032179000800,6.199000732421875,-0.3800201416015625,0.799652099609375,-0.0229034423828125
1737750032189068800,6.20906884765625,-0.370849609375,0.7812042236328125,-0.0100250244140625
1737750032199136800,6.21913671875,-0.3625030517578125,0.780914306640625,0.01654052734375
1737750032209204700,6.229204833984375,-0.3601837158203125,0.7782440185546875,0.0410308837890625
1737750032219271700,6.239271728515625,-0.39599609375,0.750396728515625,0.0490875244140625
1737750032229340000,6.24933984375,-0.462921142578125,0.7354736328125,0.058013916015625
1737750032239407900,6.259407958984375,-0.503143310546875,0.7358245849609375,0.10113525390625
1737750032249474800,6.269474853515625,-0.5266876220703125,0.7342071533203125,0.165008544921875
1737750032259542800,6.279542724609375,-0.5522308349609375,0.71978759765625,0.2191925048828125
1737750032269611000,6.289611083984375,-0.561859130859375,0.6820831298828125,0.2351226806640625
1737750032279678700,6.2996787109375,-0.568328857421875,0.683319091796875,0.2313690185546875
1737750032289746700,6.30974658203125,-0.566192626953125,0.670684814453125,0.25262451171875
1737750032299813600,6.319813720703125,-0.5577239990234375,0.6310577392578125,0.2938690185546875
1737750032309881600,6.329881591796875,-0.5670166015625,0.587188720703125,0.3582763671875
1737750032319949800,6.33994970703125,-0.57135009765625,0.5780181884765625,0.4525909423828125
1737750032330017800,6.350017822265625,-0.5688323974609375,0.6443023681640625,0.5530548095703125
1737750032340084700,6.360084716796875,-0.5702362060546875,0.7210693359375,0.6221771240234375
1737750032350152700,6.370152587890625,-0.5240478515625,0.7722015380859375,0.647552490234375
1737750032360220700,6.380220703125,-0.482025146484375,0.833831787109375,0.652069091796875
1737750032370289000,6.390288818359375,-0.4486541748046875,0.885711669921875,0.634552001953125
1737750032380355800,6.40035595703125,-0.428741455078125,0.9439849853515625,0.609039306640625
1737750032390423800,6.410423828125,-0.394378662109375,1.0220184326171875,0.606536865234375
1737750032400491800,6.42049169921875,-0.3653411865234375,1.1124114990234375,0.6457366943359375
1737750032410559700,6.430559814453125,-0.332916259765625,1.1941070556640625,0.700714111328125
1737750032420627700,6.440627685546875,-0.2808685302734375,1.282379150390625,0.7409820556640625
1737750032430695400,6.4506953125,-0.246002197265625,1.337860107421875,0.73651123046875
1737750032440763400,6.460763427734375,-0.2362823486328125,1.33709716796875,0.709075927734375
1737750032450831400,6.470831298828125,-0.228271484375,1.3213958740234375,0.69635009765625
1737750032460898600,6.480898681640625,-0.1440887451171875,1.2628631591796875,0.6703033447265625
1737750032470966500,6.490966552734375,-0.0115203857421875,1.1678314208984375,0.533477783203125
1737750032481034500,6.501034423828125,0.1722259521484375,1.155731201171875,0.32666015625
1737750032491102500,6.5111025390625,0.3442535400390625,1.2235260009765625,0.096435546875
1737750032501169400,6.52116943359375,0.3781890869140625,1.2859039306640625,-0.11334228515625
1737750032511237600,6.531237548828125,0.2361907958984375,1.30438232421875,-0.206207275390625
1737750032521305600,6.5413056640625,0.00537109375,1.2387847900390625,-0.097381591796875
1737750032531373600,6.55137353515625,-0.2193603515625,1.09112548828125,0.10992431640625
1737750032541440500,6.5614404296875,-0.37811279296875,0.9389190673828125,0.2794036865234375
1737750032551508500,6.571508544921875,-0.4455718994140625,0.84173583984375,0.3817596435546875
1737750032561576700,6.58157666015625,-0.4672393798828125,0.791259765625,0.422698974609375
1737750032571644700,6.591644775390625,-0.4472808837890625,0.78472900390625,0.4358062744140625
1737750032581711600,6.601711669921875,-0.476409912109375,0.8253021240234375,0.4431304931640625
1737750032591779600,6.611779541015625,-0.5496978759765625,0.869873046875,0.4572906494140625
1737750032601847300,6.621847412109375,-0.5934906005859375,0.873931884765625,0.482208251953125
1737750032611915500,6.63191552734375,-0.5776519775390625,0.8614044189453125,0.4976654052734375
1737750032621983500,6.6419833984375,-0.530059814453125,0.836700439453125,0.4639739990234375
1737750032632050400,6.652050537109375,-0.475006103515625,0.8455810546875,0.3980560302734375
1737750032642118400,6.662118408203125,-0.4331817626953125,0.8739471435546875,0.3400726318359375
1737750032652186600,6.6721865234375,-0.3851776123046875,0.907958984375,0.3086700439453125
1737750032662254600,6.682254638671875,-0.3319854736328125,0.92462158203125,0.2834014892578125
1737750032672321500,6.692321533203125,-0.286529541015625,0.8838043212890625,0.2515869140625
1737750032682389500,6.702389404296875,-0.266510009765625,0.8306427001953125,0.22119140625
1737750032692457500,6.71245751953125,-0.262115478515625,0.8096771240234375,0.20343017578125
1737750032702525700,6.722525634765625,-0.2888336181640625,0.79779052734375,0.209747314453125
1737750032712592600,6.732592529296875,-0.3528900146484375,0.7841949462890625,0.2480621337890625
1737750032722660600,6.74266064453125,-0.4056396484375,0.7689056396484375,0.2824554443359375
1737750032732728600,6.752728515625,-0.46649169921875,0.778045654296875,0.301177978515625
1737750032742796500,6.762796630859375,-0.50091552734375,0.813995361328125,0.3116302490234375
1737750032752863500,6.772863525390625,-0.4992828369140625,0.856231689453125,0.329864501953125
1737750032762931700,6.782931640625,-0.4802093505859375,0.863311767578125,0.346649169921875
1737750032772999400,6.79299951171875,-0.488433837890625,0.8209381103515625,0.3655242919921875
1737750032783067400,6.8030673828125,-0.52752685546875,0.7885589599609375,0.375518798828125
1737750032793134300,6.81313427734375,-0.5671844482421875,0.821075439453125,0.3630523681640625
1737750032803202600,6.82320263671875,-0.5801849365234375,0.892730712890625,0.3179931640625
1737750032813270500,6.8332705078125,-0.540130615234375,0.8963470458984375,0.2471923828125
1737750032823338500,6.84333837890625,-0.4984893798828125,0.779052734375,0.152618408203125
1737750032833405400,6.853405517578125,-0.492767333984375,0.6640472412109375,0.0634918212890625
1737750032843473400,6.863473388671875,-0.4847564697265625,0.6637725830078125,-0.006500244140625
1737750032853541600,6.873541748046875,-0.468414306640625,0.7524261474609375,-0.056060791015625
1737750032863609600,6.883609619140625,-0.4423828125,0.845703125,-0.072021484375
1737750032873676500,6.893676513671875,-0.4290618896484375,0.882171630859375,-0.0668182373046875
1737750032883744500,6.90374462890625,-0.43426513671875,0.85357666015625,-0.0756072998046875
1737750032893812500,6.9138125,-0.4400177001953125,0.80303955078125,-0.1047515869140625
1737750032903880700,6.923880615234375,-0.44049072265625,0.7674102783203125,-0.142364501953125
1737750032913948400,6.933948486328125,-0.4389190673828125,0.7403411865234375,-0.171295166015625
1737750032924015600,6.944015625,-0.4388275146484375,0.7362213134765625,-0.196075439453125
1737750032934083600,6.95408349609375,-0.41143798828125,0.7569732666015625,-0.21148681640625
1737750032944151300,6.9641513671875,-0.3949127197265625,0.7845306396484375,-0.2155914306640625
1737750032954219500,6.974219482421875,-0.4018402099609375,0.8056488037109375,-0.2111053466796875
1737750032964286500,6.984286376953125,-0.4025421142578125,0.812896728515625,-0.2086944580078125
1737750032974354400,6.9943544921875,-0.3946685791015625,0.8061676025390625,-0.2101593017578125
1737750032984422400,7.00442236328125,-0.404083251953125,0.789886474609375,-0.20556640625
1737750032994490600,7.01449072265625,-0.411285400390625,0.7783050537109375,-0.2044219970703125
1737750033004557600,7.0245576171875,-0.3926849365234375,0.7692718505859375,-0.217803955078125
1737750033014625500,7.03462548828125,-0.39532470703125,0.7615966796875,-0.2352294921875
1737750033024693500,7.044693603515625,-0.406768798828125,0.7682037353515625,-0.249786376953125
1737750033034761500,7.054761474609375,-0.3938446044921875,0.7790374755859375,-0.258941650390625
1737750033044828400,7.064828369140625,-0.3749847412109375,0.7757415771484375,-0.264862060546875
1737750033054896600,7.074896728515625,-0.37060546875,0.7807769775390625,-0.263702392578125
1737750033064964600,7.084964599609375,-0.3742523193359375,0.812652587890625,-0.2577362060546875
1737750033075032600,7.095032470703125,-0.35357666015625,0.8716888427734375,-0.2695770263671875
1737750033085100300,7.105100341796875,-0.30364990234375,0.9326019287109375,-0.31829833984375
1737750033095167700,7.115167724609375,-0.2641448974609375,0.9915008544921875,-0.369598388671875
1737750033105235500,7.1252353515625,-0.26763916015625,1.0263671875,-0.3785247802734375
1737750033115303400,7.135303466796875,-0.2894744873046875,1.028472900390625,-0.2917022705078125
1737750033125371400,7.145371337890625,-0.289581298828125,0.9947662353515625,-0.19012451171875
1737750033135438300,7.155438232421875,-0.29168701171875,0.9613494873046875,-0.1583404541015625
1737750033145506600,7.165506591796875,-0.3110198974609375,0.98052978515625,-0.1725006103515625
1737750033155574500,7.175574462890625,-0.338897705078125,1.018218994140625,-0.143707275390625
1737750033165642500,7.185642578125,-0.3416900634765625,1.0665283203125,-0.035003662109375
1737750033175709400,7.19570947265625,-0.31219482421875,1.0864105224609375,0.0688629150390625
1737750033185777400,7.20577734375,-0.3006744384765625,1.0685577392578125,0.1334686279296875
1737750033195845600,7.215845703125,-0.3054656982421875,1.108856201171875,0.177642822265625
1737750033205913600,7.22591357421875,-0.2863616943359375,1.218902587890625,0.170928955078125
1737750033215980500,7.23598046875,-0.2693328857421875,1.2790374755859375,0.124359130859375
1737750033226048500,7.246048583984375,-0.26806640625,1.2388916015625,0.06036376953125
1737750033236116500,7.256116455078125,-0.25921630859375,1.1429443359375,-0.024261474609375
1737750033246184700,7.266184814453125,-0.2397613525390625,1.07379150390625,-0.07049560546875
1737750033256251600,7.276251708984375,-0.2187042236328125,1.0418853759765625,-0.0723724365234375
1737750033266319600,7.286319580078125,-0.1929168701171875,1.03448486328125,-0.054107666015625
1737750033276387300,7.29638720703125,-0.1767425537109375,1.038848876953125,-0.0352325439453125
1737750033286455600,7.30645556640625,-0.1675872802734375,1.0414276123046875,-0.0259246826171875
1737750033296522500,7.3165224609375,-0.153076171875,1.0377044677734375,-0.03973388671875
1737750033306590500,7.326590576171875,-0.1390533447265625,1.0215606689453125,-0.068572998046875
1737750033316658400,7.336658447265625,-0.0646209716796875,0.99658203125,-0.0919189453125
1737750033326726400,7.346726318359375,-0.0272979736328125,0.9552459716796875,-0.12982177734375
1737750033336794600,7.356794677734375,-0.069091796875,0.9493408203125,-0.18096923828125
1737750033346861600,7.366861572265625,-0.1497344970703125,0.9969024658203125,-0.23016357421875
1737750033356929500,7.376929443359375,-0.2018585205078125,1.021484375,-0.2282257080078125
1737750033366997500,7.38699755859375,-0.194305419921875,1.0045013427734375,-0.153594970703125
1737750033377065500,7.3970654296875,-0.20574951171875,0.9680023193359375,-0.0503692626953125
1737750033387132400,7.40713232421875,-0.192657470703125,0.9438018798828125,0.0631103515625
1737750033397200600,7.41720068359375,-0.167938232421875,0.92010498046875,0.1499786376953125
1737750033407268600,7.4272685546875,-0.1765594482421875,0.879425048828125,0.156158447265625
1737750033417336600,7.437336669921875,-0.178375244140625,0.8438568115234375,0.0720367431640625
1737750033427406000,7.447406005859375,-0.182281494140625,0.839996337890625,-0.0219268798828125
1737750033437474000,7.45747412109375,-0.1552581787109375,0.8119659423828125,-0.0664825439453125
1737750033447542000,7.4675419921875,-0.1428985595703125,0.7646942138671875,-0.09033203125
1737750033457610200,7.4776103515625,-0.146331787109375,0.7149505615234375,-0.1287078857421875
1737750033467677200,7.48767724609375,-0.1379241943359375,0.6751556396484375,-0.1704864501953125
1737750033477745200,7.4977451171875,-0.11627197265625,0.6880950927734375,-0.180450439453125
1737750033487813000,7.507813232421875,-0.0829925537109375,0.761505126953125,-0.1845245361328125
1737750033497880800,7.517880859375,-0.0481414794921875,0.87750244140625,-0.2179412841796875
1737750033507948000,7.527947998046875,-0.0605316162109375,0.998016357421875,-0.2811126708984375
1737750033518016000,7.53801611328125,-0.134521484375,1.0663299560546875,-0.332611083984375
1737750033528084000,7.548083984375,-0.1667327880859375,1.008575439453125,-0.3361053466796875
1737750033538152000,7.55815185546875,-0.1394195556640625,0.8318328857421875,-0.30419921875
1737750033548219000,7.568218994140625,-0.139862060546875,0.636138916015625,-0.30712890625
1737750033558286800,7.578286865234375,-0.1725921630859375,0.49078369140625,-0.3572235107421875
1737750033568355000,7.58835498046875,-0.17303466796875,0.42401123046875,-0.425750732421875
1737750033578423000,7.598423095703125,-0.135406494140625,0.4556121826171875,-0.4861297607421875
1737750033588490000,7.608489990234375,-0.09246826171875,0.579925537109375,-0.5279388427734375
1737750033598558000,7.618557861328125,-0.0569305419921875,0.7537689208984375,-0.5334014892578125
1737750033608626200,7.628626220703125,-0.0577545166015625,0.8949432373046875,-0.4928436279296875
1737750033618694100,7.638694091796875,-0.07977294921875,0.9534149169921875,-0.448577880859375
1737750033628762000,7.64876220703125,-0.10064697265625,0.957427978515625,-0.4440460205078125
1737750033638829000,7.6588291015625,-0.1266326904296875,0.9526214599609375,-0.4826507568359375
1737750033648897000,7.66889697265625,-0.1555328369140625,0.9381866455078125,-0.5283203125
1737750033658965000,7.678965087890625,-0.1730499267578125,0.9046173095703125,-0.5520477294921875
1737750033669033000,7.689032958984375,-0.189239501953125,0.8723602294921875,-0.5487060546875
1737750033679100200,7.69910009765625,-0.208709716796875,0.8502349853515625,-0.5267486572265625
1737750033689168000,7.70916796875,-0.2306671142578125,0.837554931640625,-0.49493408203125
1737750033699235800,7.71923583984375,-0.2461090087890625,0.8486328125,-0.463104248046875
1737750033709304000,7.729303955078125,-0.2474822998046875,0.8759918212890625,-0.453216552734375
1737750033719371000,7.73937109375,-0.242828369140625,0.8660736083984375,-0.464874267578125
1737750033729439000,7.74943896484375,-0.2254791259765625,0.8489532470703125,-0.4818878173828125
1737750033739507000,7.7595068359375,-0.185516357421875,0.8572540283203125,-0.526031494140625
1737750033749575200,7.7695751953125,-0.144378662109375,0.837615966796875,-0.578826904296875
1737750033759642000,7.77964208984375,-0.093231201171875,0.799072265625,-0.591522216796875
1737750033769710000,7.7897099609375,-0.0450286865234375,0.762298583984375,-0.60015869140625
1737750033779778000,7.799778076171875,-0.0014495849609375,0.714599609375,-0.6142730712890625
1737750033789846000,7.809845947265625,0.0529022216796875,0.6699066162109375,-0.6204376220703125
1737750033799913000,7.819912841796875,0.0730438232421875,0.6440887451171875,-0.617828369140625
1737750033809981200,7.829981201171875,0.0593109130859375,0.6215362548828125,-0.6144561767578125
1737750033820049200,7.840049072265625,0.0459136962890625,0.5980072021484375,-0.603515625
1737750033830116900,7.850116943359375,0.01922607421875,0.602081298828125,-0.5776519775390625
1737750033840184000,7.86018408203125,-0.010498046875,0.6395111083984375,-0.5403594970703125
1737750033850252000,7.870251953125,-0.0277099609375,0.65631103515625,-0.5390167236328125
1737750033860320000,7.880320068359375,-0.057281494140625,0.6432952880859375,-0.580535888671875
1737750033870388000,7.890387939453125,-0.0722808837890625,0.63214111328125,-0.6146240234375
1737750033880456000,7.9004560546875,-0.0515289306640625,0.6278228759765625,-0.6127166748046875
1737750033890523000,7.91052294921875,-0.0320587158203125,0.6419219970703125,-0.6119537353515625
1737750033900591000,7.920591064453125,-0.0143585205078125,0.68212890625,-0.6088714599609375
1737750033910659000,7.9306591796875,0.0150604248046875,0.7435150146484375,-0.6139068603515625
1737750033920727000,7.94072705078125,0.0496673583984375,0.80712890625,-0.6553955078125
1737750033930794000,7.9507939453125,0.0671539306640625,0.9221343994140625,-0.7111968994140625
1737750033940862000,7.960862060546875,0.0388641357421875,1.0426483154296875,-0.7377471923828125
1737750033950930200,7.97093017578125,0.003753662109375,1.0130615234375,-0.7270050048828125
1737750033960998100,7.980998046875,-0.0160675048828125,0.9105987548828125,-0.694366455078125
1737750033971065000,7.991065185546875,-0.067047119140625,0.8729705810546875,-0.68450927734375
1737750033981133000,8.001133056640626,-0.1385955810546875,0.8740234375,-0.7087249755859375
1737750033991201000,8.011200927734375,-0.180633544921875,0.888641357421875,-0.72027587890625
1737750034001269000,8.02126904296875,-0.1842041015625,0.9222564697265625,-0.68438720703125
1737750034011336200,8.031336181640626,-0.1739349365234375,0.958404541015625,-0.616729736328125
1737750034021404000,8.04140380859375,-0.1946258544921875,0.959808349609375,-0.556732177734375
1737750034031471900,8.051471923828124,-0.2398529052734375,0.928466796875,-0.525238037109375
1737750034041539800,8.061539794921876,-0.2778778076171875,0.889984130859375,-0.5259552001953125
1737750034051607000,8.07160693359375,-0.2937469482421875,0.857757568359375,-0.5625457763671875
1737750034061675000,8.081675048828124,-0.2756500244140625,0.8379058837890625,-0.6041412353515625
1737750034071743000,8.091742919921876,-0.25067138671875,0.8270263671875,-0.6277313232421875
1737750034081811000,8.10181103515625,-0.23876953125,0.796722412109375,-0.6419830322265625
1737750034091878000,8.1118779296875,-0.238067626953125,0.7690582275390625,-0.635955810546875
1737750034101946000,8.121946044921875,-0.245208740234375,0.761505126953125,-0.598236083984375
1737750034112014000,8.13201416015625,-0.263763427734375,0.7698211669921875,-0.5419158935546875
1737750034122082000,8.14208203125,-0.297210693359375,0.7804412841796875,-0.49395751953125
1737750034132150000,8.15214990234375,-0.332122802734375,0.7902374267578125,-0.4595794677734375
1737750034142217000,8.162217041015625,-0.37030029296875,0.800994873046875,-0.43804931640625
1737750034152285200,8.17228515625,-0.3961181640625,0.8093109130859375,-0.425201416015625
1737750034162353200,8.182353271484375,-0.405303955078125,0.818206787109375,-0.4147491455078125
1737750034172420900,8.1924208984375,-0.4214935302734375,0.824920654296875,-0.3911590576171875
1737750034182488000,8.202488037109376,-0.461395263671875,0.802703857421875,-0.3634185791015625
1737750034192556000,8.21255615234375,-0.4836273193359375,0.7623748779296875,-0.329925537109375
1737750034202624000,8.2226240234375,-0.501007080078125,0.7281646728515625,-0.312713623046875
1737750034212692000,8.23269189453125,-0.5099029541015625,0.7125244140625,-0.311126708984375
1737750034222759000,8.242759033203125,-0.5174713134765625,0.7034912109375,-0.3182220458984375
1737750034232827000,8.252826904296874,-0.5053253173828125,0.7130889892578125,-0.326019287109375
1737750034242895000,8.26289501953125,-0.4810028076171875,0.74951171875,-0.3268890380859375
1737750034252963000,8.272963134765625,-0.497528076171875,0.7817840576171875,-0.3436737060546875
1737750034263030000,8.283030029296874,-0.5422515869140625,0.873077392578125,-0.383392333984375
1737750034273098000,8.293097900390626,-0.431915283203125,1.1426239013671875,-0.462860107421875
1737750034283166000,8.303166015625,-0.2049407958984375,1.493988037109375,-0.487579345703125
1737750034293234200,8.313234130859374,-0.190155029296875,1.4862823486328125,-0.4111480712890625
1737750034303301000,8.323301025390625,-0.341400146484375,1.1241302490234375,-0.3490753173828125
1737750034313369000,8.333369140625,-0.4062042236328125,0.9354095458984375,-0.3115692138671875
1737750034323437000,8.34343701171875,-0.4062957763671875,0.96893310546875,-0.2931671142578125
1737750034333505000,8.353505126953126,-0.403900146484375,1.0147247314453125,-0.308074951171875
1737750034343572000,8.363572021484375,-0.4157257080078125,0.9797515869140625,-0.3405609130859375
1737750034353640200,8.37364013671875,-0.443115234375,0.895355224609375,-0.3754119873046875
1737750034363708000,8.3837080078125,-0.4269256591796875,0.827667236328125,-0.3811187744140625
1737750034373776000,8.39377587890625,-0.3997802734375,0.797119140625,-0.36572265625
1737750034383844000,8.403843994140624,-0.3874664306640625,0.8286285400390625,-0.3404388427734375
1737750034393911000,8.4139111328125,-0.3871002197265625,0.902740478515625,-0.3106842041015625
1737750034403979000,8.42397900390625,-0.377105712890625,0.97711181640625,-0.2895965576171875
1737750034414047000,8.434046875,-0.35675048828125,1.014739990234375,-0.2993927001953125
1737750034424111900,8.44411181640625,-0.34222412109375,1.025238037109375,-0.3231048583984375
1737750034434178800,8.4541787109375,-0.3380279541015625,1.034881591796875,-0.3454437255859375
1737750034444246800,8.464246826171875,-0.336395263671875,1.0582427978515625,-0.335784912109375
1737750034454314800,8.474314697265624,-0.3498382568359375,1.0972747802734375,-0.2980804443359375
1737750034464383000,8.484383056640626,-0.3700714111328125,1.138824462890625,-0.2490997314453125
1737750034474450000,8.494449951171875,-0.4099884033203125,1.1781005859375,-0.1861572265625
1737750034484518000,8.504517822265624,-0.4395751953125,1.201751708984375,-0.13568115234375
1737750034494585900,8.5145859375,-0.4561767578125,1.2099151611328125,-0.1059722900390625
1737750034504653600,8.524653564453125,-0.49041748046875,1.2027740478515625,-0.1082763671875
1737750034514720800,8.534720703125,-0.521270751953125,1.1527862548828125,-0.131683349609375
1737750034524788700,8.544788818359375,-0.50067138671875,1.1354827880859375,-0.167877197265625
1737750034534856700,8.554856689453125,-0.441314697265625,1.1597900390625,-0.195465087890625
1737750034544924700,8.564924560546874,-0.38995361328125,1.1721038818359375,-0.1970977783203125
1737750034554992600,8.57499267578125,-0.383392333984375,1.1522674560546875,-0.2076873779296875
1737750034565059600,8.5850595703125,-0.40264892578125,1.1331634521484375,-0.2178192138671875
1737750034575127800,8.5951279296875,-0.42535400390625,1.1165618896484375,-0.2257232666015625
1737750034585195800,8.60519580078125,-0.4239654541015625,1.08514404296875,-0.2418365478515625
1737750034595263700,8.615263671875,-0.412872314453125,1.0612640380859375,-0.2505950927734375
1737750034605330700,8.62533056640625,-0.4054412841796875,1.0589599609375,-0.2393646240234375
1737750034615399000,8.63539892578125,-0.409637451171875,1.07928466796875,-0.192169189453125
1737750034625467000,8.645466796875,-0.431976318359375,1.0933837890625,-0.1573486328125
1737750034635534800,8.655534912109376,-0.45166015625,1.0973358154296875,-0.1469879150390625
1737750034645601800,8.665601806640625,-0.47705078125,1.1050567626953125,-0.1502838134765625
1737750034655669800,8.675669677734374,-0.5023651123046875,1.0961761474609375,-0.1560211181640625
1737750034665738000,8.685738037109376,-0.4883270263671875,1.068572998046875,-0.1532135009765625
1737750034675805700,8.6958056640625,-0.467315673828125,1.0265655517578125,-0.1610260009765625
1737750034685873000,8.705872802734374,-0.45819091796875,0.978118896484375,-0.1848297119140625
1737750034695940600,8.715940673828126,-0.4443359375,0.9581146240234375,-0.2071380615234375
1737750034706008600,8.726008544921875,-0.43798828125,0.949859619140625,-0.2043914794921875
1737750034716076800,8.736076904296874,-0.390777587890625,0.9232635498046875,-0.1705474853515625
1737750034726143700,8.746143798828125,-0.3362884521484375,0.8785552978515625,-0.127532958984375
1737750034736211700,8.756211669921875,-0.3038330078125,0.8967742919921875,-0.1125030517578125
1737750034746279700,8.76627978515625,-0.3127593994140625,0.987152099609375,-0.117706298828125
1737750034756347600,8.77634765625,-0.329071044921875,1.0383148193359375,-0.148590087890625
1737750034766416000,8.786415771484375,-0.3504638671875,1.0040740966796875,-0.2148590087890625
1737750034776482800,8.79648291015625,-0.3870697021484375,0.920745849609375,-0.30584716796875
1737750034786550800,8.80655078125,-0.404876708984375,0.845550537109375,-0.3693084716796875
1737750034796618800,8.81661865234375,-0.397247314453125,0.796539306640625,-0.36175537109375
1737750034806687000,8.82668701171875,-0.3983917236328125,0.7877349853515625,-0.280517578125
1737750034816754000,8.83675390625,-0.4157867431640625,0.8148040771484375,-0.160400390625
1737750034826822000,8.84682177734375,-0.4279022216796875,0.86187744140625,-0.0458831787109375
1737750034836889900,8.856889892578126,-0.4519195556640625,0.9040374755859375,-0.0068359375
1737750034846957600,8.86695751953125,-0.48370361328125,0.9079742431640625,-0.0333251953125
1737750034857024800,8.877024658203124,-0.5022430419921875,0.8803863525390625,-0.0577239990234375
1737750034867092700,8.8870927734375,-0.5195159912109375,0.8456878662109375,-0.085845947265625
1737750034877160700,8.89716064453125,-0.53656005859375,0.8453216552734375,-0.1081695556640625
1737750034887228700,8.907228759765625,-0.5358428955078125,0.8563995361328125,-0.1136474609375
1737750034897296600,8.917296630859376,-0.551849365234375,0.8678741455078125,-0.1077117919921875
1737750034907363600,8.927363525390625,-0.5745697021484375,0.8772125244140625,-0.104217529296875
1737750034917431800,8.937431884765624,-0.5846405029296875,0.891510009765625,-0.096160888671875
1737750034927499800,8.947499755859376,-0.546844482421875,0.905731201171875,-0.0897674560546875
1737750034937567700,8.957567626953125,-0.55126953125,0.9058837890625,-0.0872039794921875
1737750034947634700,8.967634765625,-0.5438232421875,0.9019317626953125,-0.082122802734375
1737750034957703000,8.977702880859376,-0.550811767578125,0.9193115234375,-0.0817108154296875
1737750034967771000,8.98777099609375,-0.5588836669921875,0.926971435546875,-0.0973968505859375
1737750034977838800,8.9978388671875,-0.5506744384765625,0.9235992431640625,-0.110595703125
1737750034987905800,9.00790576171875,-0.5463714599609375,0.9241790771484375,-0.11883544921875
1737750034997973800,9.017973876953125,-0.5378265380859375,0.9217681884765625,-0.1139068603515625
1737750035008042000,9.0280419921875,-0.52587890625,0.9053955078125,-0.092926025390625
1737750035018109700,9.038109619140625,-0.5228729248046875,0.879974365234375,-0.0679168701171875
1737750035028177700,9.048177734375,-0.5179595947265625,0.849578857421875,-0.0438995361328125
1737750035038244600,9.05824462890625,-0.5141754150390625,0.807891845703125,-0.021697998046875
1737750035048312600,9.0683125,-0.5167083740234375,0.7553253173828125,0.01788330078125
1737750035058380800,9.078380859375,-0.5244140625,0.69622802734375,0.0676422119140625
1737750035068448800,9.08844873046875,-0.5338897705078125,0.639739990234375,0.11102294921875
1737750035078515700,9.098515625,-0.5478057861328125,0.5836944580078125,0.1464080810546875
1737750035088583700,9.108583740234375,-0.563812255859375,0.5262451171875,0.1645660400390625
1737750035098652000,9.11865185546875,-0.5815887451171875,0.4715118408203125,0.1639862060546875
1737750035108719900,9.128719970703125,-0.58551025390625,0.4470062255859375,0.1719818115234375
1737750035118786800,9.138786865234374,-0.5789031982421875,0.46746826171875,0.201507568359375
1737750035128854800,9.148854736328126,-0.56597900390625,0.5161285400390625,0.2418975830078125
1737750035138922800,9.1589228515625,-0.5648651123046875,0.5638427734375,0.26513671875
1737750035148991000,9.168990966796875,-0.5683441162109375,0.578704833984375,0.2608795166015625
1737750035159058000,9.179057861328126,-0.55902099609375,0.553558349609375,0.2475738525390625
1737750035169126000,9.1891259765625,-0.54205322265625,0.51422119140625,0.235321044921875
1737750035179193900,9.19919384765625,-0.5237274169921875,0.4930572509765625,0.223907470703125
1737750035189261600,9.209261474609375,-0.500152587890625,0.498809814453125,0.223236083984375
1737750035199328800,9.219328857421875,-0.4754638671875,0.52410888671875,0.2274017333984375
1737750035209396700,9.229396728515624,-0.44647216796875,0.560791015625,0.2358856201171875
1737750035219464700,9.239464599609375,-0.4322967529296875,0.60186767578125,0.2425994873046875
1737750035229532700,9.24953271484375,-0.4248046875,0.6382598876953125,0.242645263671875
1737750035239600600,9.2596005859375,-0.417236328125,0.6553802490234375,0.2354278564453125
1737750035249667800,9.269667724609375,-0.407745361328125,0.6596527099609375,0.2285614013671875
1737750035259735800,9.27973583984375,-0.3950347900390625,0.661712646484375,0.227996826171875
1737750035269803800,9.2898037109375,-0.38427734375,0.6557159423828125,0.2383880615234375
1737750035279871700,9.299871826171875,-0.371795654296875,0.6491546630859375,0.263336181640625
1737750035289938700,9.309938720703125,-0.3721160888671875,0.642181396484375,0.301910400390625
1737750035300007000,9.3200068359375,-0.3951568603515625,0.652923583984375,0.3421478271484375
1737750035310075000,9.330074951171875,-0.4176025390625,0.692718505859375,0.37255859375
1737750035320142800,9.340142822265625,-0.456787109375,0.7618255615234375,0.3958587646484375
1737750035330209800,9.350209716796876,-0.4922332763671875,0.833099365234375,0.4081573486328125
1737750035340277800,9.36027783203125,-0.524505615234375,0.8629302978515625,0.41229248046875
1737750035350345700,9.370345703125,-0.5590972900390625,0.8372955322265625,0.4139251708984375
1737750035360413700,9.38041357421875,-0.5868988037109375,0.761962890625,0.4192352294921875
1737750035370481000,9.39048095703125,-0.609771728515625,0.6937713623046875,0.4440460205078125
1737750035380548600,9.400548583984374,-0.6464691162109375,0.6787872314453125,0.49542236328125
1737750035390616600,9.410616455078125,-0.7054901123046875,0.7080535888671875,0.54876708984375
1737750035400684800,9.420684814453125,-0.7655181884765625,0.75653076171875,0.5951690673828125
1737750035410752800,9.430752685546874,-0.8077850341796875,0.79132080078125,0.63134765625
1737750035420819700,9.44081982421875,-0.841552734375,0.8013916015625,0.6522674560546875
1737750035430887700,9.4508876953125,-0.8633575439453125,0.79302978515625,0.6594085693359375
1737750035440956000,9.460955810546874,-0.8694915771484375,0.7755126953125,0.6522216796875
1737750035451024000,9.47102392578125,-0.8687286376953125,0.759521484375,0.6402740478515625
1737750035461090800,9.4810908203125,-0.8588714599609375,0.7481842041015625,0.6208038330078125
1737750035471158800,9.49115869140625,-0.827972412109375,0.7475433349609375,0.6084747314453125
1737750035481227000,9.50122705078125,-0.792388916015625,0.7615203857421875,0.60101318359375
1737750035491295000,9.511294921875,-0.755279541015625,0.780426025390625,0.5916748046875
1737750035501362000,9.52136181640625,-0.70843505859375,0.8022918701171875,0.5804595947265625
1737750035511430000,9.531429931640625,-0.66986083984375,0.8121337890625,0.558807373046875
1737750035521497600,9.54149755859375,-0.6441650390625,0.802581787109375,0.52044677734375
1737750035531565800,9.55156591796875,-0.6189422607421875,0.7988433837890625,0.4794769287109375
1737750035541632800,9.5616328125,-0.5865478515625,0.794036865234375,0.4529266357421875
1737750035551700700,9.57170068359375,-0.555694580078125,0.7945098876953125,0.4444580078125
1737750035561768700,9.581768798828126,-0.561431884765625,0.836700439453125,0.4434967041015625
1737750035571836700,9.591836669921875,-0.5765838623046875,0.890869140625,0.4292144775390625
1737750035581903600,9.601903564453124,-0.5682373046875,0.8740234375,0.413330078125
1737750035591971800,9.611971923828126,-0.585906982421875,0.7823333740234375,0.37579345703125
1737750035602039800,9.622039794921875,-0.616119384765625,0.7049407958984375,0.3393096923828125
1737750035612107800,9.632107666015624,-0.6431884765625,0.7076568603515625,0.336761474609375
1737750035622175700,9.64217578125,-0.675323486328125,0.7537078857421875,0.3667144775390625
1737750035632243000,9.652242919921875,-0.7043609619140625,0.80218505859375,0.4126434326171875
1737750035642311000,9.662310791015624,-0.72064208984375,0.8043212890625,0.4418182373046875
1737750035652379000,9.67237890625,-0.705657958984375,0.7667236328125,0.4342041015625
1737750035662446800,9.68244677734375,-0.69403076171875,0.73480224609375,0.3996734619140625
1737750035672513800,9.692513671875,-0.6875762939453125,0.7203826904296875,0.353851318359375
1737750035682582000,9.70258203125,-0.684967041015625,0.725311279296875,0.3192596435546875
1737750035692649700,9.712649658203125,-0.6666259765625,0.7393035888671875,0.292816162109375
1737750035702717700,9.7227177734375,-0.648651123046875,0.75634765625,0.2552032470703125
1737750035712784600,9.73278466796875,-0.6549072265625,0.7696685791015625,0.2068634033203125
1737750035722852600,9.7428525390625,-0.651702880859375,0.7767333984375,0.1732025146484375
1737750035732920800,9.7529208984375,-0.6424713134765625,0.7835540771484375,0.1604156494140625
1737750035742988800,9.76298876953125,-0.6303253173828125,0.794769287109375,0.1545562744140625
1737750035753056800,9.773056884765625,-0.624053955078125,0.8036956787109375,0.13861083984375
1737750035763123700,9.783123779296876,-0.6230621337890625,0.802764892578125,0.132843017578125
1737750035773192000,9.79319189453125,-0.601287841796875,0.805938720703125,0.1431427001953125
1737750035783260000,9.803260009765625,-0.6182098388671875,0.813323974609375,0.116302490234375
1737750035793327900,9.813327880859376,-0.6355743408203125,0.8167572021484375,0.0607452392578125
1737750035803394800,9.823394775390625,-0.6302642822265625,0.8198394775390625,0.022857666015625
1737750035813462800,9.833462890625,-0.63116455078125,0.813140869140625,-0.0119171142578125
1737750035823531000,9.843531005859376,-0.6323089599609375,0.796722412109375,-0.0392303466796875
1737750035833599000,9.853598876953125,-0.6458740234375,0.7722930908203125,-0.048187255859375
1737750035843666000,9.863666015625,-0.67108154296875,0.7351531982421875,-0.05938720703125
1737750035853734000,9.87373388671875,-0.6737213134765625,0.6997833251953125,-0.0661163330078125
1737750035863801600,9.883801513671875,-0.665496826171875,0.67315673828125,-0.0595855712890625
1737750035873869800,9.893869873046874,-0.6694793701171875,0.6565399169921875,-0.0611114501953125
1737750035883936800,9.903936767578125,-0.6827850341796875,0.636566162109375,-0.0733489990234375
1737750035894004700,9.914004638671875,-0.6842041015625,0.6062774658203125,-0.07196044921875
1737750035904072700,9.92407275390625,-0.6917724609375,0.569244384765625,-0.059234619140625
1737750035914140700,9.934140625,-0.7025909423828125,0.5305023193359375,-0.052581787109375
1737750035924209000,9.944208984375,-0.7136993408203125,0.495208740234375,-0.05291748046875
1737750035934275800,9.95427587890625,-0.714813232421875,0.47052001953125,-0.0629730224609375
1737750035944343800,9.96434375,-0.7005157470703125,0.4556121826171875,-0.070220947265625
1737750035954411800,9.974411865234375,-0.686920166015625,0.467315673828125,-0.0657806396484375
1737750035964480000,9.98447998046875,-0.68084716796875,0.501922607421875,-0.0579376220703125
1737750035974547000,9.994546875,-0.68438720703125,0.52734375,-0.05810546875
1737750035984615000,10.004614990234375,-0.68341064453125,0.5287628173828125,-0.0558319091796875
1737750035994683000,10.014682861328126,-0.696380615234375,0.51910400390625,-0.0424652099609375
1737750036004750800,10.024750732421875,-0.7162017822265625,0.5161895751953125,-0.030029296875
1737750036014817800,10.03481787109375,-0.7354736328125,0.5190887451171875,-0.0345916748046875
1737750036024886000,10.044885986328126,-0.7338714599609375,0.5174102783203125,-0.0457763671875
1737750036034953700,10.05495361328125,-0.72564697265625,0.512420654296875,-0.0537567138671875
1737750036045021700,10.065021728515624,-0.7216796875,0.510009765625,-0.0670928955078125
1737750036055089700,10.075089599609376,-0.714447021484375,0.5270843505859375,-0.07421875
1737750036065156600,10.085156494140625,-0.706695556640625,0.562835693359375,-0.0719146728515625
1737750036075224800,10.095224853515624,-0.711944580078125,0.5775299072265625,-0.078399658203125
1737750036085292800,10.105292724609376,-0.721649169921875,0.55145263671875,-0.092620849609375
1737750036095360800,10.11536083984375,-0.7175750732421875,0.5437774658203125,-0.0966644287109375
1737750036105427700,10.125427734375,-0.7178497314453125,0.561492919921875,-0.094207763671875
1737750036115496000,10.135495849609375,-0.711761474609375,0.5818328857421875,-0.08697509765625
1737750036125564000,10.14556396484375,-0.7048492431640625,0.5796661376953125,-0.0845947265625
1737750036135632000,10.1556318359375,-0.69769287109375,0.5626983642578125,-0.085418701171875
1737750036145698800,10.16569873046875,-0.6918487548828125,0.558868408203125,-0.0778656005859375
1737750036155766800,10.175766845703125,-0.69464111328125,0.5692291259765625,-0.0711669921875
1737750036165835000,10.1858349609375,-0.7032928466796875,0.5786285400390625,-0.0697784423828125
1737750036175902700,10.19590283203125,-0.71405029296875,0.5902557373046875,-0.0714263916015625
1737750036185970700,10.205970703125,-0.7189483642578125,0.6220550537109375,-0.07708740234375
1737750036196038000,10.216037841796876,-0.7085418701171875,0.67315673828125,-0.0769500732421875
1737750036206105600,10.226105712890625,-0.68609619140625,0.714569091796875,-0.0667877197265625
1737750036216173800,10.236173828125,-0.6768951416015625,0.7319488525390625,-0.054473876953125
1737750036226241800,10.24624169921875,-0.6838226318359375,0.7234344482421875,-0.0497283935546875
1737750036236308700,10.256308837890625,-0.695831298828125,0.70208740234375,-0.04571533203125
1737750036246376700,10.266376708984374,-0.7003173828125,0.6908111572265625,-0.0406951904296875
1737750036256444700,10.276444580078126,-0.697235107421875,0.68975830078125,-0.043304443359375
1737750036266513000,10.286512939453125,-0.6918792724609375,0.7024993896484375,-0.0490264892578125
1737750036276579800,10.296579833984374,-0.6770172119140625,0.72314453125,-0.039215087890625
1737750036286647800,10.306647705078126,-0.666015625,0.736663818359375,-0.02508544921875
1737750036296715800,10.3167158203125,-0.6568450927734375,0.7431640625,-0.02301025390625
1737750036306784000,10.326783935546874,-0.637786865234375,0.754058837890625,-0.0178375244140625
1737750036316852000,10.33685205078125,-0.6256866455078125,0.763458251953125,-0.0178375244140625
1737750036326919000,10.3469189453125,-0.630859375,0.76043701171875,-0.023223876953125
1737750036336987000,10.35698681640625,-0.6382904052734375,0.7555694580078125,-0.01507568359375
1737750036347054600,10.3670546875,-0.635498046875,0.760101318359375,0.009490966796875
1737750036357122800,10.377122802734375,-0.6419525146484375,0.76385498046875,0.032806396484375
1737750036367189800,10.387189697265624,-0.652862548828125,0.7585601806640625,0.0501251220703125
1737750036377257700,10.3972578125,-0.670135498046875,0.7548675537109375,0.057098388671875
1737750036387325700,10.40732568359375,-0.669891357421875,0.7621002197265625,0.0564117431640625
1737750036397393700,10.4173935546875,-0.6663360595703125,0.7727508544921875,0.0648040771484375
1737750036407460900,10.4274609375,-0.6645660400390625,0.7740936279296875,0.0748748779296875
1737750036417528800,10.43752880859375,-0.6627349853515625,0.766082763671875,0.090484619140625
1737750036427596300,10.44759619140625,-0.66375732421875,0.749176025390625,0.112457275390625
1737750036437664500,10.45766455078125,-0.6676483154296875,0.7309112548828125,0.134307861328125
1737750036447732500,10.467732421875,-0.670318603515625,0.72259521484375,0.1482086181640625
1737750036457799400,10.47779931640625,-0.662139892578125,0.7233123779296875,0.152496337890625
1737750036467867400,10.487867431640625,-0.65838623046875,0.7312469482421875,0.1505584716796875
1737750036477935400,10.497935302734374,-0.656829833984375,0.7472686767578125,0.1530303955078125
1737750036488003600,10.508003662109376,-0.64990234375,0.7617950439453125,0.1656036376953125
1737750036498070500,10.518070556640625,-0.642974853515625,0.76922607421875,0.1750335693359375
1737750036508138500,10.528138427734374,-0.632843017578125,0.7813262939453125,0.17755126953125
1737750036518206500,10.53820654296875,-0.6146087646484375,0.79315185546875,0.18865966796875
1737750036528274200,10.548274169921875,-0.5879974365234375,0.7890167236328125,0.2211761474609375
1737750036538341400,10.55834130859375,-0.556915283203125,0.774322509765625,0.257232666015625
1737750036548409300,10.568409423828125,-0.5494232177734375,0.7779693603515625,0.2718505859375
1737750036558477300,10.578477294921875,-0.541259765625,0.791961669921875,0.273895263671875
1737750036568545300,10.588545166015624,-0.5198974609375,0.79180908203125,0.2724609375
1737750036578613200,10.59861328125,-0.507232666015625,0.79107666015625,0.27325439453125
1737750036588680400,10.608680419921875,-0.5000457763671875,0.7956695556640625,0.2942657470703125
1737750036598748400,10.61874853515625,-0.4981536865234375,0.789642333984375,0.3249359130859375
1737750036608816400,10.62881640625,-0.4952850341796875,0.76287841796875,0.338714599609375
1737750036618884400,10.63888427734375,-0.4915924072265625,0.7247772216796875,0.3433990478515625
1737750036628951300,10.648951416015626,-0.4867401123046875,0.70086669921875,0.361419677734375
1737750036639019500,10.65901953125,-0.4842681884765625,0.6910247802734375,0.3915863037109375
1737750036649087500,10.66908740234375,-0.47869873046875,0.6865997314453125,0.415252685546875
1737750036659155500,10.679155517578126,-0.47161865234375,0.7075653076171875,0.4288482666015625
1737750036669222400,10.689222412109375,-0.4514617919921875,0.7451019287109375,0.4583587646484375
1737750036679290400,10.699290283203124,-0.4308624267578125,0.7662811279296875,0.49822998046875
1737750036689358600,10.709358642578126,-0.427978515625,0.7627716064453125,0.514434814453125
1737750036699426300,10.71942626953125,-0.4266510009765625,0.7397003173828125,0.512786865234375
1737750036709494300,10.729494384765625,-0.437347412109375,0.7093048095703125,0.500885009765625
1737750036719561200,10.739561279296876,-0.4578857421875,0.6830291748046875,0.4858551025390625
1737750036729629200,10.749629150390625,-0.4783477783203125,0.6728973388671875,0.47906494140625
1737750036739697400,10.759697509765624,-0.4921875,0.68035888671875,0.4858551025390625
1737750036749765400,10.769765380859376,-0.49871826171875,0.6977386474609375,0.5141143798828125
1737750036759832300,10.779832275390625,-0.5060577392578125,0.7146759033203125,0.5450897216796875
1737750036769900300,10.789900390625,-0.5258636474609375,0.730621337890625,0.56207275390625
1737750036779968500,10.799968505859376,-0.5358428955078125,0.7357635498046875,0.5728912353515625
1737750036790036500,10.810036376953125,-0.54315185546875,0.7304229736328125,0.5744476318359375
1737750036800103400,10.820103515625,-0.5416412353515625,0.723846435546875,0.5608062744140625
1737750036810171400,10.83017138671875,-0.536468505859375,0.7255401611328125,0.558380126953125
1737750036820239400,10.8402392578125,-0.5336151123046875,0.7425994873046875,0.566741943359375
1737750036830307600,10.8503076171875,-0.53851318359375,0.7699127197265625,0.5775604248046875
1737750036840375300,10.860375244140625,-0.550811767578125,0.7857818603515625,0.5883026123046875
1737750036850442500,10.8704423828125,-0.5527191162109375,0.79083251953125,0.5970916748046875
1737750036860510500,10.880510498046876,-0.542205810546875,0.7831878662109375,0.5922393798828125
1737750036870578200,10.890578125,-0.5335540771484375,0.77117919921875,0.584442138671875
1737750036880646400,10.900646484375,-0.531005859375,0.7666778564453125,0.586151123046875
1737750036890713300,10.91071337890625,-0.53912353515625,0.7677459716796875,0.587127685546875
1737750036900781300,10.92078125,-0.553985595703125,0.7652587890625,0.5884246826171875
1737750036910849300,10.930849365234375,-0.558441162109375,0.7667694091796875,0.603912353515625
1737750036920917500,10.94091748046875,-0.5486602783203125,0.7817535400390625,0.6254730224609375
1737750036930984400,10.950984375,-0.531097412109375,0.800384521484375,0.6345367431640625
1737750036941052400,10.961052490234374,-0.5059967041015625,0.8068084716796875,0.6453857421875
1737750036951120400,10.971120361328126,-0.484161376953125,0.7918548583984375,0.6617431640625
1737750036961188400,10.981188232421875,-0.458526611328125,0.7618560791015625,0.668060302734375
1737750036971256600,10.991256591796875,-0.4316253662109375,0.7227325439453125,0.6800537109375
1737750036981323500,11.001323486328126,-0.4024810791015625,0.6844482421875,0.7155609130859375
1737750036991391500,11.0113916015625,-0.371368408203125,0.650909423828125,0.75537109375
1737750037001459500,11.02145947265625,-0.3408355712890625,0.612213134765625,0.789703369140625
1737750037011527400,11.03152734375,-0.312530517578125,0.57623291015625,0.8181304931640625
1737750037021594400,11.041594482421875,-0.280120849609375,0.56341552734375,0.842498779296875
1737750037031662600,11.05166259765625,-0.2534027099609375,0.5697174072265625,0.8748931884765625
1737750037041730300,11.061730224609375,-0.2542266845703125,0.575347900390625,0.9095001220703125
1737750037051798300,11.07179833984375,-0.2631683349609375,0.586639404296875,0.9282073974609375
1737750037061865200,11.081865234375,-0.2783050537109375,0.618072509765625,0.929290771484375
1737750037071933400,11.091933349609375,-0.2868194580078125,0.674713134765625,0.9276275634765625
1737750037082001400,11.10200146484375,-0.30047607421875,0.755706787109375,0.9402923583984375
1737750037092069400,11.1120693359375,-0.3283233642578125,0.811614990234375,0.9461517333984375
1737750037102137300,11.122137451171875,-0.36492919921875,0.797698974609375,0.909423828125
1737750037112204300,11.132204345703125,-0.393096923828125,0.749298095703125,0.8605804443359375
1737750037122272500,11.1422724609375,-0.4083099365234375,0.715484619140625,0.8446807861328125
1737750037132340500,11.152340576171875,-0.4261474609375,0.7045440673828125,0.838043212890625
1737750037142408400,11.162408447265625,-0.4454193115234375,0.7009429931640625,0.8152923583984375
1737750037152475400,11.172475341796876,-0.449920654296875,0.69244384765625,0.781585693359375
1737750037162543400,11.18254345703125,-0.450408935546875,0.690155029296875,0.7353057861328125
1737750037172611600,11.192611572265625,-0.4349822998046875,0.706787109375,0.6846771240234375
1737750037182679300,11.20267919921875,-0.4082489013671875,0.728302001953125,0.6133880615234375
1737750037192746500,11.21274658203125,-0.377410888671875,0.723541259765625,0.519500732421875
1737750037202814500,11.222814453125,-0.3305206298828125,0.694610595703125,0.44232177734375
1737750037212882200,11.232882080078125,-0.2869873046875,0.6658172607421875,0.3848114013671875
1737750037222950400,11.242950439453125,-0.241790771484375,0.65203857421875,0.33648681640625
1737750037233018400,11.253018310546874,-0.211700439453125,0.6533660888671875,0.30645751953125
1737750037243085300,11.263085205078125,-0.197784423828125,0.659698486328125,0.291534423828125
1737750037253153300,11.2731533203125,-0.1992950439453125,0.66522216796875,0.2754364013671875
1737750037263221500,11.283221435546874,-0.2025604248046875,0.6668548583984375,0.262847900390625
1737750037273289500,11.29328955078125,-0.2115478515625,0.656158447265625,0.2725372314453125
1737750037283356400,11.3033564453125,-0.236358642578125,0.6322174072265625,0.301300048828125
1737750037293424400,11.31342431640625,-0.262603759765625,0.5948028564453125,0.3515167236328125
1737750037303492400,11.323492431640625,-0.287506103515625,0.563446044921875,0.4084320068359375
1737750037313560600,11.333560546875,-0.306060791015625,0.5635833740234375,0.4595184326171875
1737750037323627500,11.34362744140625,-0.323089599609375,0.5984039306640625,0.5
1737750037333695500,11.353695556640625,-0.340545654296875,0.6462554931640625,0.52020263671875
1737750037343763500,11.363763427734375,-0.351806640625,0.6756439208984375,0.520263671875
1737750037353831200,11.3738310546875,-0.3626708984375,0.6918182373046875,0.5146636962890625
1737750037363899400,11.3838994140625,-0.379852294921875,0.7034454345703125,0.4934234619140625
1737750037373966300,11.39396630859375,-0.3948516845703125,0.70526123046875,0.4585723876953125
1737750037384034300,11.404034423828126,-0.3995361328125,0.705535888671875,0.4383697509765625
1737750037394102300,11.414102294921875,-0.3987274169921875,0.719512939453125,0.4316253662109375
1737750037404170500,11.42417041015625,-0.4044342041015625,0.746826171875,0.432403564453125
1737750037414237400,11.434237548828126,-0.4105987548828125,0.7800445556640625,0.4449005126953125
1737750037424305400,11.444305419921875,-0.4170989990234375,0.8216400146484375,0.4692840576171875
1737750037434374400,11.45437451171875,-0.4180755615234375,0.8586273193359375,0.4932098388671875
1737750037444442400,11.4644423828125,-0.417724609375,0.8736572265625,0.50714111328125
1737750037454509300,11.47450927734375,-0.415008544921875,0.86785888671875,0.5011138916015625
1737750037464577300,11.484577392578124,-0.4136505126953125,0.855438232421875,0.469146728515625
1737750037474645500,11.4946455078125,-0.4028167724609375,0.8402099609375,0.4234771728515625
1737750037484713200,11.504713134765625,-0.3838043212890625,0.816375732421875,0.3833160400390625
1737750037494781200,11.51478125,-0.35821533203125,0.7911529541015625,0.353363037109375
1737750037504848100,11.52484814453125,-0.3234405517578125,0.7713470458984375,0.342987060546875
1737750037514916000,11.534916015625,-0.297393798828125,0.7736968994140625,0.3615875244140625
1737750037524984300,11.544984375,-0.292999267578125,0.8341522216796875,0.4071807861328125
1737750037535052300,11.55505224609375,-0.3069915771484375,0.9404754638671875,0.4605255126953125
1737750037545119200,11.565119140625,-0.325714111328125,1.00030517578125,0.4773712158203125
1737750037555187200,11.575187255859374,-0.3396453857421875,0.951995849609375,0.441009521484375
1737750037565255200,11.585255126953125,-0.3229827880859375,0.8441619873046875,0.3829803466796875
1737750037575323400,11.595323486328125,-0.3011016845703125,0.757537841796875,0.333740234375
1737750037585390300,11.605390380859374,-0.3148956298828125,0.71844482421875,0.3200531005859375
1737750037595458300,11.615458251953125,-0.350830078125,0.7368316650390625,0.33990478515625
1737750037605526300,11.6255263671875,-0.37005615234375,0.800384521484375,0.388519287109375
1737750037615594500,11.635594482421874,-0.365142822265625,0.860595703125,0.4406585693359375
1737750037625661400,11.645661376953125,-0.3406829833984375,0.8953399658203125,0.4580841064453125
1737750037635729400,11.6557294921875,-0.314483642578125,0.89678955078125,0.432159423828125
1737750037645797400,11.66579736328125,-0.2950592041015625,0.8745574951171875,0.39251708984375
1737750037655865000,11.675864990234375,-0.2886505126953125,0.8576202392578125,0.3686676025390625
1737750037665933300,11.685933349609375,-0.2909393310546875,0.8672027587890625,0.372772216796875
1737750037676000300,11.696000244140626,-0.3001556396484375,0.8718719482421875,0.398590087890625
1737750037686068200,11.706068115234375,-0.3123626708984375,0.8647613525390625,0.4398193359375
1737750037696136200,11.71613623046875,-0.323211669921875,0.8541717529296875,0.477142333984375
1737750037706204200,11.7262041015625,-0.3305816650390625,0.8382720947265625,0.4812164306640625
1737750037716271000,11.73627099609375,-0.331146240234375,0.8104095458984375,0.4622344970703125
1737750037726339300,11.74633935546875,-0.3145599365234375,0.7930908203125,0.4348907470703125
1737750037736407300,11.7564072265625,-0.29608154296875,0.798858642578125,0.4149017333984375
1737750037746475300,11.766475341796875,-0.280487060546875,0.8138580322265625,0.406768798828125
1737750037756542200,11.776542236328124,-0.2685394287109375,0.8395843505859375,0.400177001953125
1737750037766610400,11.7866103515625,-0.25469970703125,0.874053955078125,0.3987884521484375
1737750037776678400,11.796678466796875,-0.244964599609375,0.897979736328125,0.403045654296875
1737750037786746400,11.806746337890624,-0.235626220703125,0.9109039306640625,0.4077606201171875
1737750037796813300,11.816813232421875,-0.2347564697265625,0.9120941162109375,0.411224365234375
1737750037806881300,11.82688134765625,-0.22564697265625,0.901885986328125,0.4147186279296875
1737750037816949200,11.83694921875,-0.1923370361328125,0.8902587890625,0.4158477783203125
1737750037827017200,11.847017333984375,-0.216766357421875,0.888397216796875,0.405029296875
1737750037837084400,11.85708447265625,-0.2659759521484375,0.89788818359375,0.372894287109375
1737750037847152000,11.867152099609376,-0.26409912109375,0.9105224609375,0.369537353515625
1737750037857220000,11.87722021484375,-0.2478485107421875,0.888946533203125,0.39337158203125
1737750037867288300,11.887288330078125,-0.25164794921875,0.8595123291015625,0.438385009765625
1737750037877356300,11.897356201171876,-0.2552490234375,0.854278564453125,0.488006591796875
1737750037887423200,11.90742333984375,-0.255218505859375,0.8654022216796875,0.5225067138671875
1737750037897491200,11.9174912109375,-0.2552337646484375,0.8822021484375,0.524932861328125
1737750037907559200,11.92755908203125,-0.2585296630859375,0.8897857666015625,0.495208740234375
1737750037917627400,11.93762744140625,-0.248291015625,0.892974853515625,0.46282958984375
1737750037927694300,11.9476943359375,-0.238250732421875,0.8878173828125,0.448211669921875
1737750037937762300,11.95776220703125,-0.2313995361328125,0.88568115234375,0.445465087890625
1737750037947830300,11.967830322265625,-0.2210845947265625,0.89453125,0.4369049072265625
1737750037957898500,11.9778984375,-0.2176055908203125,0.90765380859375,0.4329986572265625
1737750037967965400,11.98796533203125,-0.2225494384765625,0.927093505859375,0.42926025390625
1737750037978033400,11.998033447265625,-0.2169647216796875,0.9372100830078125,0.420440673828125
1737750037988101000,12.00810107421875,-0.2269439697265625,0.940948486328125,0.4225921630859375
1737750037998169000,12.018169189453126,-0.22625732421875,0.9508209228515625,0.427093505859375
1737750038008236300,12.028236328125,-0.23260498046875,0.9465484619140625,0.4406585693359375
1737750038018304300,12.03830419921875,-0.24151611328125,0.9441070556640625,0.4622650146484375
1737750038028372200,12.048372314453125,-0.249481201171875,0.949066162109375,0.475494384765625
1737750038038440200,12.058440185546875,-0.253997802734375,0.9458160400390625,0.479766845703125
1737750038048507100,12.068507080078126,-0.2421417236328125,0.9392852783203125,0.48187255859375
1737750038058575000,12.0785751953125,-0.243255615234375,0.9227294921875,0.4906005859375
1737750038068643300,12.088643310546875,-0.24041748046875,0.8954315185546875,0.5059661865234375
1737750038078711300,12.098711181640626,-0.2422332763671875,0.8733367919921875,0.5077667236328125
1737750038088778200,12.1087783203125,-0.23162841796875,0.8660888671875,0.4976654052734375
1737750038098846200,12.11884619140625,-0.256195068359375,0.85980224609375,0.48529052734375
1737750038108914400,12.12891455078125,-0.25006103515625,0.8555450439453125,0.4792938232421875
1737750038118982400,12.138982421875,-0.2470550537109375,0.85614013671875,0.4764404296875
1737750038129049300,12.14904931640625,-0.2545013427734375,0.8593597412109375,0.4781341552734375
1737750038139117300,12.159117431640626,-0.25,0.8524932861328125,0.4755401611328125
1737750038149185300,12.169185302734375,-0.2386474609375,0.8459930419921875,0.4726104736328125
1737750038159253200,12.179253173828124,-0.2335205078125,0.8338165283203125,0.4794769287109375
1737750038169320400,12.189320556640626,-0.2296600341796875,0.80908203125,0.4900665283203125
1737750038179388200,12.19938818359375,-0.2218780517578125,0.79241943359375,0.4987335205078125
1737750038189456100,12.2094560546875,-0.21600341796875,0.7848358154296875,0.5045318603515625
1737750038199524000,12.219524169921876,-0.2153778076171875,0.7697296142578125,0.4989776611328125
1737750038209591000,12.229591064453125,-0.2132568359375,0.756439208984375,0.4807891845703125
1737750038219659300,12.2396591796875,-0.2043304443359375,0.743133544921875,0.4522552490234375
1737750038229727200,12.249727294921875,-0.1861572265625,0.7359771728515625,0.4360198974609375
1737750038239795200,12.259795166015625,-0.17340087890625,0.741943359375,0.4366912841796875
1737750038249863400,12.269863525390624,-0.1651763916015625,0.7502899169921875,0.4503631591796875
1737750038259930400,12.279930419921875,-0.1655426025390625,0.7563934326171875,0.458038330078125
1737750038269998300,12.289998291015625,-0.164886474609375,0.740814208984375,0.4534454345703125
1737750038280066300,12.30006640625,-0.1546173095703125,0.6993255615234375,0.4409332275390625
1737750038290134300,12.31013427734375,-0.1440582275390625,0.64971923828125,0.4352569580078125
1737750038300201200,12.320201171875,-0.1433258056640625,0.6214447021484375,0.4417572021484375
1737750038310269400,12.33026953125,-0.15240478515625,0.60235595703125,0.450653076171875
1737750038320337400,12.34033740234375,-0.1535491943359375,0.57623291015625,0.455413818359375
1737750038330405000,12.350405029296875,-0.159088134765625,0.55340576171875,0.4638824462890625
1737750038340472300,12.360472412109376,-0.18328857421875,0.53057861328125,0.4796142578125
1737750038350540300,12.370540283203125,-0.1940460205078125,0.510650634765625,0.5058746337890625
1737750038360608300,12.380608154296874,-0.2022552490234375,0.4932098388671875,0.52581787109375
1737750038370676200,12.39067626953125,-0.1907196044921875,0.478179931640625,0.5341644287109375
1737750038380743200,12.4007431640625,-0.164093017578125,0.478607177734375,0.5458221435546875
1737750038390811100,12.41081103515625,-0.1456451416015625,0.5015716552734375,0.5678253173828125
1737750038400879400,12.42087939453125,-0.1306304931640625,0.565643310546875,0.5794677734375
1737750038410947300,12.430947265625,-0.1269989013671875,0.65228271484375,0.562286376953125
1737750038421014300,12.44101416015625,-0.12066650390625,0.72607421875,0.5320892333984375
1737750038431081200,12.451081298828125,-0.117889404296875,0.802001953125,0.5186309814453125
1737750038441149200,12.461149169921875,-0.1303558349609375,0.8945159912109375,0.5244293212890625
1737750038451217200,12.471217041015626,-0.137451171875,0.97607421875,0.54345703125
1737750038461284000,12.4812841796875,-0.15850830078125,1.0151214599609375,0.557952880859375
1737750038471352300,12.491352294921874,-0.1928558349609375,1.006927490234375,0.5519866943359375
1737750038481420300,12.501420166015626,-0.233734130859375,0.9834442138671875,0.5382843017578125
1737750038491488300,12.51148828125,-0.2623748779296875,0.947174072265625,0.523193359375
1737750038501555200,12.52155517578125,-0.2772369384765625,0.9163665771484375,0.5271759033203125
1737750038511623400,12.53162353515625,-0.2929840087890625,0.91204833984375,0.56951904296875
1737750038521691400,12.54169140625,-0.32537841796875,0.920684814453125,0.634765625
1737750038531759400,12.55175927734375,-0.356781005859375,0.9479217529296875,0.6981658935546875
1737750038541826300,12.561826416015625,-0.379669189453125,0.996978759765625,0.74505615234375
1737750038551894300,12.571894287109375,-0.3893890380859375,1.0513153076171875,0.745147705078125
1737750038561962200,12.581962158203124,-0.3546142578125,1.0783538818359375,0.68145751953125
1737750038572029400,12.592029541015625,-0.3038177490234375,1.0723114013671875,0.6053314208984375
1737750038582097400,12.602097412109375,-0.268768310546875,1.060638427734375,0.5529632568359375
1737750038592165000,12.6121650390625,-0.2520904541015625,1.0556182861328125,0.515777587890625
1737750038602233000,12.622233154296875,-0.2553558349609375,1.044219970703125,0.511627197265625
1737750038612301300,12.63230126953125,-0.280364990234375,1.020721435546875,0.545074462890625
1737750038622368300,12.6423681640625,-0.30596923828125,0.9922027587890625,0.5856170654296875
1737750038632436200,12.652436279296875,-0.3312835693359375,0.967437744140625,0.60992431640625
1737750038642504200,12.662504150390625,-0.3545379638671875,0.950347900390625,0.62799072265625
1737750038652571100,12.672571044921876,-0.36810302734375,0.9344024658203125,0.6458587646484375
1737750038662639400,12.682639404296875,-0.3749847412109375,0.9401397705078125,0.6682281494140625
1737750038672707300,12.692707275390624,-0.38836669921875,0.9617156982421875,0.6814727783203125
1737750038682775300,12.702775390625,-0.39886474609375,0.975677490234375,0.672119140625
1737750038692842200,12.71284228515625,-0.4080047607421875,0.9779052734375,0.660980224609375
1737750038702910200,12.72291015625,-0.412689208984375,0.970245361328125,0.6366729736328125
1737750038712978400,12.732978515625,-0.3992919921875,0.9682159423828125,0.613189697265625
1737750038723046400,12.74304638671875,-0.397552490234375,0.9687652587890625,0.608245849609375
1737750038733113300,12.75311328125,-0.4102783203125,0.9675140380859375,0.6015472412109375
1737750038743181300,12.763181396484375,-0.4219207763671875,0.970245361328125,0.596282958984375
1737750038753249300,12.773249267578125,-0.4282073974609375,0.968536376953125,0.5856170654296875
1737750038763317200,12.783317138671874,-0.4306793212890625,0.9491424560546875,0.5681304931640625
1737750038773384400,12.793384521484375,-0.43011474609375,0.9312744140625,0.551239013671875
1737750038783452200,12.8034521484375,-0.43646240234375,0.92236328125,0.535247802734375
1737750038793520000,12.81352001953125,-0.4475860595703125,0.90155029296875,0.5139007568359375
1737750038803588000,12.823588134765625,-0.4427490234375,0.885498046875,0.4929656982421875
1737750038813655300,12.8336552734375,-0.444976806640625,0.880950927734375,0.4826507568359375
1737750038823723300,12.84372314453125,-0.4527587890625,0.8931121826171875,0.4882049560546875
1737750038833791200,12.853791259765625,-0.4471435546875,0.910186767578125,0.4925689697265625
1737750038843859200,12.863859130859375,-0.4554595947265625,0.915740966796875,0.5016632080078125
1737750038853926100,12.873926025390626,-0.4729766845703125,0.9158935546875,0.4991607666015625
1737750038863994400,12.883994384765625,-0.4844970703125,0.8961181640625,0.4505615234375
1737750038874062300,12.894062255859374,-0.4765167236328125,0.870269775390625,0.3853607177734375
1737750038884130300,12.90413037109375,-0.4673309326171875,0.8613128662109375,0.357025146484375
1737750038894197200,12.914197265625,-0.472198486328125,0.85986328125,0.36004638671875
1737750038904265200,12.92426513671875,-0.4886627197265625,0.8500213623046875,0.378204345703125
1737750038914333400,12.93433349609375,-0.5009613037109375,0.82220458984375,0.39404296875
1737750038924400400,12.944400390625,-0.509063720703125,0.784637451171875,0.3925323486328125
1737750038934468400,12.95446826171875,-0.5140838623046875,0.7487640380859375,0.3616790771484375
1737750038944536300,12.964536376953125,-0.5002593994140625,0.7361907958984375,0.32208251953125
1737750038954604300,12.974604248046875,-0.50665283203125,0.748016357421875,0.300750732421875
1737750038964671500,12.98467138671875,-0.5176544189453125,0.757720947265625,0.2873077392578125
1737750038974739200,12.9947392578125,-0.518402099609375,0.752410888671875,0.26104736328125
1737750038984807200,13.00480712890625,-0.52655029296875,0.747283935546875,0.218963623046875
1737750038994875100,13.014875244140624,-0.5189056396484375,0.758270263671875,0.168243408203125
1737750039004942000,13.024942138671875,-0.4909820556640625,0.7753143310546875,0.1436614990234375
1737750039015010300,13.03501025390625,-0.474151611328125,0.773468017578125,0.1431732177734375
1737750039025078300,13.045078369140626,-0.4696044921875,0.75030517578125,0.1511688232421875
1737750039035145200,13.055145263671875,-0.479522705078125,0.725128173828125,0.1616058349609375
1737750039045213200,13.065213134765624,-0.4838714599609375,0.7166595458984375,0.172607421875
1737750039055281200,13.07528125,-0.4969940185546875,0.717193603515625,0.1696319580078125
1737750039065349400,13.085349365234375,-0.50982666015625,0.7227783203125,0.1456756591796875
1737750039075416300,13.095416259765624,-0.5139312744140625,0.7390594482421875,0.1119842529296875
1737750039085484300,13.105484375,-0.5112152099609375,0.771881103515625,0.089569091796875
1737750039095552300,13.11555224609375,-0.505645751953125,0.8051910400390625,0.0602569580078125
1737750039105620500,13.125620361328124,-0.5187835693359375,0.8112945556640625,0.0166778564453125
1737750039115687400,13.1356875,-0.5294952392578125,0.8150482177734375,-0.0156097412109375
1737750039125755400,13.14575537109375,-0.544342041015625,0.845123291015625,-0.0402984619140625
1737750039135823400,13.1558232421875,-0.5514984130859375,0.8604278564453125,-0.08599853515625
