time,seconds_elapsed,z,y,x
1737750026098084000,0.118083984375,-0.07036790251731873,-0.05260009318590164,0.038714904338121414
1737750026108151800,0.12815185546875,-0.06643122434616089,-0.05144268274307251,0.032160598784685135
1737750026118219800,0.1382197265625,-0.06315020471811295,-0.056418802589178085,0.025983663275837898
1737750026128288000,0.1482880859375,-0.055575378239154816,-0.06992422044277191,0.019208848476409912
1737750026138355000,0.15835498046875,-0.04229845479130745,-0.08173587173223495,0.017103087157011032
1737750026148423000,0.1684228515625,-0.02852565050125122,-0.0834011510014534,0.019960658624768257
1737750026158491000,0.178490966796875,-0.019593674689531326,-0.07335250824689865,0.017099890857934952
1737750026168558800,0.188558837890625,-0.01654116064310074,-0.05535726621747017,0.027045732364058495
1737750026178625800,0.198625732421875,-0.012929913587868214,-0.031554728746414185,0.03706054762005806
1737750026188694000,0.208694091796875,-0.006180131807923317,-0.008986038155853748,0.043831903487443924
1737750026198762000,0.218761962890625,-0.001389104756526649,0.012804478406906128,0.04645271971821785
1737750026208829000,0.228828857421875,0.004372644238173962,0.020507937297225,0.04616083577275276
1737750026218897000,0.23889697265625,0.0025188177824020386,0.01636272855103016,0.03796256333589554
1737750026228965000,0.248965087890625,0.0033902039285749197,-0.0004040015337523073,0.034624554216861725
1737750026239033000,0.259033203125,0.006999852601438761,-0.006863498594611883,0.026004701852798462
1737750026249100000,0.26910009765625,0.007274424657225609,-0.016684703528881073,0.021405955776572227
1737750026259168000,0.27916796875,0.006737264804542065,-0.019814716652035713,0.014613830484449863
1737750026269236000,0.289236083984375,0.009288573637604713,-0.01871669664978981,0.013879063539206982
1737750026279304000,0.299303955078125,0.012659602798521519,-0.013260677456855774,0.008897088468074799
1737750026289371100,0.30937109375,0.010451575741171837,-0.003882622579112649,0.0021840583067387342
1737750026299438800,0.31943896484375,0.010751447640359402,-0.004454136826097965,0.002672215923666954
1737750026309506800,0.3295068359375,0.011779161170125008,0.006223008502274752,0.003712446428835392
1737750026319574800,0.33957470703125,0.009660882875323296,0.01811828278005123,-0.0008506136364303529
1737750026329641700,0.349641845703125,0.005381449591368437,0.028366394340991974,-0.0002825613773893565
1737750026339710000,0.3597099609375,0.0010410296963527799,0.04029708728194237,-0.0035167040769010782
1737750026349778000,0.36977783203125,-0.001282045734114945,0.050993144512176514,-0.008560198359191418
1737750026359846000,0.379845947265625,0.003465305082499981,0.06465063244104385,-0.0099636847153306
1737750026369912800,0.389912841796875,0.00833889003843069,0.07121825218200684,-0.00691889226436615
1737750026379981000,0.39998095703125,0.014357900246977806,0.07770278304815292,-0.008471248671412468
1737750026390049000,0.410049072265625,0.019890351220965385,0.08264721184968948,0.000937166390940547
1737750026400117000,0.420116943359375,0.02478151209652424,0.0779629722237587,0.0009691243176348507
1737750026410184000,0.430183837890625,0.03305355831980705,0.08355161547660828,0.0025867284275591373
1737750026420251600,0.440251708984375,0.03434359282255173,0.09433183073997498,0.012181565165519714
1737750026430319900,0.45031982421875,0.03753059729933739,0.10668782889842987,0.011292601935565472
1737750026440386800,0.46038671875,0.037100762128829956,0.12260394543409348,0.02106666937470436
1737750026450454800,0.470454833984375,0.0382230207324028,0.13469043374061584,0.027117904275655746
1737750026460522800,0.480522705078125,0.03796602413058281,0.14883261919021606,0.03146311640739441
1737750026470590500,0.490590576171875,0.03765150532126427,0.15819735825061798,0.037824343889951706
1737750026480657700,0.50065771484375,0.03927337005734444,0.1600397378206253,0.04536162316799164
1737750026490725600,0.5107255859375,0.035890623927116394,0.1640256941318512,0.05036303773522377
1737750026500793600,0.520793701171875,0.030412767082452774,0.16625049710273743,0.053815294057130814
1737750026510861600,0.530861572265625,0.02647048979997635,0.16266188025474548,0.057245444506406784
1737750026520928500,0.540928466796875,0.016834108158946037,0.15535204112529755,0.058274224400520325
1737750026530996700,0.550996826171875,0.009996973909437656,0.1417296975851059,0.056778326630592346
1737750026541064700,0.561064697265625,0.0032354744616895914,0.131783589720726,0.05306961014866829
1737750026551132700,0.571132568359375,-0.0015241270884871483,0.12312166392803192,0.048584312200546265
1737750026561199600,0.58119970703125,-0.0051534827798604965,0.11043675988912582,0.04013250395655632
1737750026571267600,0.591267578125,-0.009280583821237087,0.1027761772274971,0.028909945860505104
1737750026581335800,0.601335693359375,-0.01149819791316986,0.09950342029333115,0.02106134220957756
1737750026591403800,0.61140380859375,-0.016349412500858307,0.09378588199615479,0.012828713282942772
1737750026601470700,0.621470703125,-0.020173178985714912,0.08718763291835785,0.0014692660188302398
1737750026611538700,0.63153857421875,-0.024412931874394417,0.07822156697511673,0.0020815266761928797
1737750026621606700,0.641606689453125,-0.023201726377010345,0.0665004625916481,-0.008042479865252972
1737750026631675000,0.6516748046875,-0.02365765906870365,0.06245006248354912,-0.017709488049149513
1737750026641741800,0.661741943359375,-0.02646542899310589,0.0654812753200531,-0.028025243431329727
1737750026651809800,0.671809814453125,-0.029276927933096886,0.07265129685401917,-0.031022630631923676
1737750026661877800,0.681877685546875,-0.03092755563557148,0.08927155286073685,-0.034577418118715286
1737750026671945500,0.691945556640625,-0.028988774865865707,0.10406381636857986,-0.030858846381306648
1737750026682012700,0.7020126953125,-0.027121897786855698,0.11096486449241638,-0.02912299707531929
1737750026692080600,0.71208056640625,-0.021034711971879005,0.11713248491287231,-0.02105042338371277
1737750026702148600,0.722148681640625,-0.016262326389551163,0.1253320872783661,-0.0169100072234869
1737750026712216600,0.732216552734375,-0.007302653975784779,0.13356071710586548,-0.008376706391572952
1737750026722283500,0.742283447265625,-0.004460262134671211,0.1397259384393692,-0.0001853560097515583
1737750026732351700,0.752351806640625,-0.0035595810040831566,0.14653751254081726,0.006037119776010513
1737750026742419700,0.762419677734375,-0.004704474005848169,0.14403466880321503,0.013946708291769028
1737750026752486700,0.772486572265625,-0.0075998627580702305,0.14626480638980865,0.019629094749689102
1737750026762554600,0.7825546875,-0.009727462194859982,0.14540992677211761,0.02467951364815235
1737750026772622600,0.79262255859375,-0.008954878896474838,0.15323908627033234,0.03003832697868347
1737750026782690800,0.80269091796875,-0.006841394584625959,0.15369635820388794,0.03298431634902954
1737750026792757800,0.8127578125,-0.00250470289029181,0.15484949946403503,0.03364691138267517
1737750026802825700,0.82282568359375,-0.0030091057997196913,0.15422791242599487,0.03436622768640518
1737750026812893700,0.832893798828125,-0.006480003707110882,0.15531475841999054,0.03741661459207535
1737750026822961700,0.842961669921875,-0.01176158431917429,0.1549466997385025,0.038776692003011703
1737750026833028900,0.85302880859375,-0.013791445642709732,0.1628248691558838,0.03762487322092056
1737750026843096800,0.863096923828125,-0.01822773925960064,0.17150543630123138,0.033073265105485916
1737750026853164800,0.873164794921875,-0.020908743143081665,0.17524638772010803,0.031633827835321426
1737750026863232500,0.883232421875,-0.019209647551178932,0.1790589690208435,0.026638269424438477
1737750026873299700,0.8932998046875,-0.02556980773806572,0.17788025736808777,0.024529844522476196
1737750026883367700,0.90336767578125,-0.02623693086206913,0.1814102679491043,0.018031731247901917
1737750026893435600,0.913435546875,-0.035581961274147034,0.17207136750221252,0.015053784474730492
1737750026903503600,0.923503662109375,-0.039515186101198196,0.15587562322616577,0.006857906002551317
1737750026913570600,0.933570556640625,-0.03963795676827431,0.13894829154014587,-0.002180329989641905
1737750026923638500,0.943638427734375,-0.04343828931450844,0.12052082270383835,-0.012520851567387581
1737750026933706800,0.953706787109375,-0.04467266425490379,0.09353181719779968,-0.01575605943799019
1737750026943773700,0.963773681640625,-0.04688921198248863,0.06664454191923141,-0.02576581761240959
1737750026953841700,0.973841552734375,-0.05229249969124794,0.044384509325027466,-0.036429114639759064
1737750026963909600,0.98390966796875,-0.053456831723451614,0.024524783715605736,-0.04187794029712677
1737750026973977900,0.993977783203125,-0.05356389284133911,0.01363272126764059,-0.047815460711717606
1737750026984044800,1.004044921875,-0.05752161517739296,-0.0011283813510090113,-0.049195773899555206
1737750026994112800,1.01411279296875,-0.06620991230010986,-0.00866193138062954,-0.04862559214234352
1737750027004180700,1.0241806640625,-0.07189016789197922,-0.0067748152650892735,-0.048181645572185516
1737750027014248700,1.034248779296875,-0.07369232922792435,-0.0029819414485245943,-0.046414103358983994
1737750027024315600,1.044315673828125,-0.07124754786491394,-0.0011134676169604063,-0.04193626344203949
1737750027034384000,1.0543837890625,-0.06924272328615189,-0.0033388049341738224,-0.032469525933265686
1737750027044451800,1.064451904296875,-0.06687916815280914,-0.0018128136871382594,-0.02208825759589672
1737750027054519600,1.07451953125,-0.067284494638443,0.005736981518566608,-0.012025769799947739
1737750027064586800,1.084586669921875,-0.06876920908689499,0.018010159954428673,0.001883387565612793
1737750027074654500,1.094654541015625,-0.0715026780962944,0.02394421398639679,0.014975487254559994
1737750027084722700,1.10472265625,-0.06813005357980728,0.03507223352789879,0.02358442172408104
1737750027094790700,1.114790771484375,-0.06949066370725632,0.044145092368125916,0.029137112200260162
1737750027104857600,1.124857666015625,-0.06479151546955109,0.047585628926754,0.033179525285959244
1737750027114925600,1.134925537109375,-0.061584003269672394,0.039732497185468674,0.04032665118575096
1737750027124993800,1.144993896484375,-0.05964894965291023,0.034560106694698334,0.04650198668241501
1737750027135060700,1.155060791015625,-0.05819033458828926,0.02322249859571457,0.0421820729970932
1737750027145128700,1.165128662109375,-0.05440731719136238,0.013154418207705021,0.04668042063713074
1737750027155196700,1.17519677734375,-0.04733928665518761,0.013449762016534805,0.044318463653326035
1737750027165264600,1.1852646484375,-0.03939827159047127,0.009884588420391083,0.051711130887269974
1737750027175331600,1.19533154296875,-0.04054369777441025,0.009967945516109467,0.05680336058139801
1737750027185399800,1.20539990234375,-0.04308914765715599,0.008474178612232208,0.06617742031812668
1737750027195467800,1.2154677734375,-0.045757632702589035,0.011097125709056854,0.07906818389892578
1737750027205535700,1.22553564453125,-0.04783676564693451,0.03208629786968231,0.08229061216115952
1737750027215602700,1.235602783203125,-0.049743056297302246,0.056044094264507294,0.08846515417098999
1737750027225670700,1.245670654296875,-0.052618738263845444,0.07515014708042145,0.08992243558168411
1737750027235739000,1.25573876953125,-0.06503252685070038,0.08211351186037064,0.08812160044908524
1737750027245806600,1.265806640625,-0.07508010417222977,0.0889972522854805,0.09217546880245209
1737750027255873800,1.275873779296875,-0.0853404626250267,0.08853092789649963,0.08961030840873718
1737750027265941500,1.28594140625,-0.08768510818481445,0.08721160143613815,0.08905397355556488
1737750027276009700,1.296009765625,-0.0913110077381134,0.08805263042449951,0.09136053919792175
1737750027286076700,1.30607666015625,-0.10034577548503876,0.0811542421579361,0.08242376893758774
1737750027296144600,1.31614453125,-0.11265064775943756,0.0716310441493988,0.08049537241458893
1737750027306212600,1.326212646484375,-0.12340182811021805,0.06250545382499695,0.0738246887922287
1737750027316280600,1.336280517578125,-0.1299595981836319,0.05908595770597458,0.06323755532503128
1737750027326347500,1.346347412109375,-0.1256956160068512,0.06302770227193832,0.061173342168331146
1737750027336415700,1.356415771484375,-0.10825909674167633,0.07563351094722748,0.06491108983755112
1737750027346483700,1.366483642578125,-0.10054951161146164,0.08149805665016174,0.06745467334985733
1737750027356551700,1.3765517578125,-0.09607646614313126,0.07751929014921188,0.07811716943979263
1737750027366618600,1.38661865234375,-0.10085604339838028,0.08092094957828522,0.09216640889644623
1737750027376686600,1.3966865234375,-0.10528115183115005,0.08944705873727798,0.10057507455348969
1737750027386754800,1.4067548828125,-0.09924695640802383,0.10405369848012924,0.10912302136421204
1737750027396822800,1.41682275390625,-0.09095760434865952,0.0987129956483841,0.11382323503494263
1737750027406889700,1.4268896484375,-0.10483027249574661,0.07602579146623611,0.1083962470293045
1737750027416957400,1.43695751953125,-0.12725596129894257,0.026492593809962273,0.1091400682926178
1737750027427025400,1.447025390625,-0.1369389444589615,0.0022690133191645145,0.13106854259967804
1737750027437093400,1.45709326171875,-0.1378185898065567,-0.021448301151394844,0.1464935690164566
1737750027447160600,1.46716064453125,-0.1566745638847351,-0.05865132808685303,0.14879080653190613
1737750027457228500,1.477228515625,-0.18745218217372894,-0.11315185576677322,0.14572498202323914
1737750027467296300,1.487296142578125,-0.21221213042736053,-0.15918086469173431,0.14922410249710083
1737750027477363500,1.497363525390625,-0.25323545932769775,-0.2380400002002716,0.13772884011268616
1737750027487431200,1.50743115234375,-0.23110325634479523,-0.2543361485004425,0.1641002595424652
1737750027497499400,1.51749951171875,-0.19832880795001984,-0.22867658734321594,0.1917281597852707
1737750027507567400,1.5275673828125,-0.17948506772518158,-0.2248528152704239,0.20111286640167236
1737750027517634300,1.53763427734375,-0.18616454303264618,-0.22296836972236633,0.20640084147453308
1737750027527702300,1.547702392578125,-0.18951240181922913,-0.1926344335079193,0.23874147236347198
1737750027537770500,1.5577705078125,-0.17765361070632935,-0.13574664294719696,0.2696421146392822
1737750027547838500,1.56783837890625,-0.15363483130931854,-0.06691645085811615,0.2993270456790924
1737750027557905400,1.577905517578125,-0.13321185111999512,0.006217948626726866,0.31772682070732117
1737750027567973400,1.587973388671875,-0.1174246296286583,0.08106236159801483,0.3358352780342102
1737750027578041300,1.598041259765625,-0.10407233983278275,0.1627950370311737,0.3537905514240265
1737750027588109600,1.608109619140625,-0.09183111786842346,0.2433900237083435,0.3610447347164154
1737750027598176500,1.618176513671875,-0.08276838064193726,0.32097482681274414,0.3648216426372528
1737750027608244500,1.628244384765625,-0.07119135558605194,0.3826451003551483,0.3562803566455841
1737750027618312400,1.6383125,-0.04929457977414131,0.4330073595046997,0.3453100025653839
1737750027628380400,1.64838037109375,-0.015874037519097328,0.4781236946582794,0.34748151898384094
1737750027638447400,1.658447265625,0.020864535123109818,0.5139650702476501,0.3407139182090759
1737750027648515600,1.668515625,0.0515311025083065,0.5267183780670166,0.31967201828956604
1737750027658583300,1.678583251953125,0.08009057492017746,0.5188170671463013,0.28535744547843933
1737750027668650500,1.688650390625,0.10677091777324677,0.49580949544906616,0.2496814727783203
1737750027678718200,1.69871826171875,0.12334643304347992,0.4807802140712738,0.22458596527576447
1737750027688786400,1.708786376953125,0.14073900878429413,0.492873877286911,0.21368005871772766
1737750027698854400,1.7188544921875,0.14428633451461792,0.5084288716316223,0.21213169395923615
1737750027708921300,1.72892138671875,0.13075295090675354,0.5159025192260742,0.20091339945793152
1737750027718989300,1.7389892578125,0.10601591318845749,0.503000795841217,0.17459657788276672
1737750027729057300,1.749057373046875,0.07060279697179794,0.48842427134513855,0.13801512122154236
1737750027739125500,1.75912548828125,0.03783712536096573,0.47416409850120544,0.10699941962957382
1737750027749192400,1.7691923828125,0.005455751903355122,0.46933045983314514,0.08722598105669022
1737750027759260400,1.779260498046875,-0.024694161489605904,0.4543834924697876,0.06412652134895325
1737750027769328400,1.789328369140625,-0.05126957967877388,0.42283833026885986,0.04870069399476051
1737750027779396400,1.799396240234375,-0.0802258625626564,0.377284973859787,0.04235624521970749
1737750027789463300,1.80946337890625,-0.11344107240438461,0.3163435757160187,0.046728890389204025
1737750027799531500,1.819531494140625,-0.14949680864810944,0.246640145778656,0.05837249755859375
1737750027809599500,1.829599609375,-0.17953673005104065,0.19050203263759613,0.06973327696323395
1737750027819667500,1.83966748046875,-0.19375136494636536,0.16010497510433197,0.08441075682640076
1737750027829734400,1.849734375,-0.2025163620710373,0.15358662605285645,0.09753214567899704
1737750027839802600,1.859802734375,-0.20087717473506927,0.17179758846759796,0.10816987603902817
1737750027849870300,1.869870361328125,-0.18630649149417877,0.18755924701690674,0.122787706553936
1737750027859937500,1.8799375,-0.16466404497623444,0.21722286939620972,0.12864266335964203
1737750027870005200,1.890005126953125,-0.1498936265707016,0.26181936264038086,0.1182669848203659
1737750027880073200,1.9000732421875,-0.13445980846881866,0.31367242336273193,0.091575987637043
1737750027890141400,1.910141357421875,-0.11774980276823044,0.3519172966480255,0.05453834310173988
1737750027900208400,1.92020849609375,-0.09367935359477997,0.35573387145996094,0.008641957305371761
1737750027910276400,1.9302763671875,-0.0580635704100132,0.33750081062316895,-0.03201332688331604
1737750027920344300,1.94034423828125,-0.03886910155415535,0.28872501850128174,-0.07057403773069382
1737750027930412300,1.950412353515625,-0.022843796759843826,0.2034149020910263,-0.09239012002944946
1737750027940479200,1.960479248046875,-0.015796007588505745,0.0913163274526596,-0.10846788436174393
1737750027950547500,1.97054736328125,-0.009366869926452637,-0.01534912921488285,-0.09569456428289413
1737750027960615400,1.980615478515625,-0.012162123806774616,-0.0956980288028717,-0.06586716324090958
1737750027970683400,1.990683349609375,-0.022606242448091507,-0.1468230038881302,-0.009162605740129948
1737750027980750300,2.000750244140625,-0.03416143357753754,-0.15347610414028168,0.06526821851730347
1737750027990818600,2.010818603515625,-0.047684166580438614,-0.12168062478303909,0.14459580183029175
1737750028000886500,2.020886474609375,-0.06025535240769386,-0.06390175223350525,0.2230224311351776
1737750028010954500,2.03095458984375,-0.06512760370969772,0.028314461931586266,0.29775285720825195
1737750028021021400,2.041021484375,-0.051970791071653366,0.14965713024139404,0.3616969585418701
1737750028031089400,2.05108935546875,-0.03159068152308464,0.2736571133136749,0.4219864010810852
1737750028041157400,2.061157470703125,-0.015532087534666061,0.3987561762332916,0.4646337330341339
1737750028051225300,2.071225341796875,0.0025414545089006424,0.5202788710594177,0.5010343194007874
1737750028061292300,2.081292236328125,0.009476060047745705,0.6306509375572205,0.5323746800422668
1737750028071360300,2.0913603515625,0.011364241130650043,0.7200567126274109,0.5467687845230103
1737750028081428200,2.10142822265625,0.004759867675602436,0.7858051061630249,0.5386565327644348
1737750028091496400,2.111496337890625,-0.001981391804292798,0.8286020755767822,0.5110816359519958
1737750028101563400,2.1215634765625,-0.006732204928994179,0.8562132120132446,0.47730743885040283
1737750028111631400,2.13163134765625,-0.022892532870173454,0.8705590963363647,0.4471394121646881
1737750028121699300,2.14169921875,-0.049921222031116486,0.8534144759178162,0.417107492685318
1737750028131766300,2.151766357421875,-0.08800921589136124,0.806955099105835,0.37549078464508057
1737750028141834500,2.16183447265625,-0.14986565709114075,0.7485549449920654,0.34220847487449646
1737750028151902500,2.17190234375,-0.2443503588438034,0.6636663675308228,0.323971688747406
1737750028161970400,2.181970458984375,-0.32919013500213623,0.5574281215667725,0.30864012241363525
1737750028172037400,2.192037353515625,-0.40869855880737305,0.44165438413619995,0.30031880736351013
1737750028182105300,2.202105224609375,-0.4571254849433899,0.3432050347328186,0.29208964109420776
1737750028192173600,2.212173583984375,-0.49097877740859985,0.27062857151031494,0.3025505542755127
1737750028202241500,2.222241455078125,-0.5328109264373779,0.22074729204177856,0.3238089680671692
1737750028212308500,2.23230859375,-0.5811901688575745,0.19796980917453766,0.3527740240097046
1737750028222376400,2.24237646484375,-0.629414975643158,0.1793425977230072,0.3719879388809204
1737750028232444200,2.252444091796875,-0.6778035163879395,0.1600370705127716,0.3949766159057617
1737750028242512400,2.262512451171875,-0.6920692920684814,0.1541813164949417,0.41189247369766235
1737750028252579300,2.272579345703125,-0.7178310751914978,0.17146949470043182,0.44302403926849365
1737750028262647300,2.282647216796875,-0.7517379522323608,0.18163397908210754,0.4767090380191803
1737750028272715300,2.29271533203125,-0.7867960333824158,0.1923380196094513,0.5082587003707886
1737750028282783500,2.302783447265625,-0.8130217790603638,0.19526056945323944,0.5416363477706909
1737750028292850400,2.312850341796875,-0.8158023953437805,0.18418075144290924,0.5686978101730347
1737750028302918400,2.32291845703125,-0.8023536801338196,0.17243488132953644,0.5865556597709656
1737750028312986400,2.332986328125,-0.7818028926849365,0.16124960780143738,0.5891152024269104
1737750028323054300,2.343054443359375,-0.7570623755455017,0.16863055527210236,0.5800071954727173
1737750028333121300,2.353121337890625,-0.7591639161109924,0.20339226722717285,0.5588720440864563
1737750028343189500,2.363189453125,-0.7476332187652588,0.22534416615962982,0.544995129108429
1737750028353257500,2.373257568359375,-0.7337772846221924,0.24686464667320251,0.5452668070793152
1737750028363324400,2.383324462890625,-0.7256962060928345,0.26923492550849915,0.5560683012008667
1737750028373392400,2.393392333984375,-0.7416418790817261,0.30503422021865845,0.5772055387496948
1737750028383460400,2.40346044921875,-0.7998250126838684,0.3653974235057831,0.6160735487937927
1737750028393528600,2.413528564453125,-0.8441650867462158,0.37339913845062256,0.644798994064331
1737750028403595500,2.423595458984375,-0.7991312742233276,0.42395687103271484,0.6447185277938843
1737750028413663500,2.43366357421875,-0.7478387951850891,0.5691063404083252,0.5690823793411255
1737750028423735800,2.44373583984375,-0.7536793947219849,0.7786523699760437,0.4452506899833679
1737750028433803800,2.4538037109375,-0.8152061104774475,0.987539529800415,0.31150755286216736
1737750028443870700,2.46387060546875,-0.9100697636604309,1.133628010749817,0.22675378620624542
1737750028453938700,2.473938720703125,-1.003771185874939,1.1702512502670288,0.17706958949565887
1737750028464006700,2.484006591796875,-1.0512423515319824,1.0936918258666992,0.14262212812900543
1737750028474075000,2.494074951171875,-1.0461479425430298,0.9685549139976501,0.10233329236507416
1737750028484141800,2.504141845703125,-0.9798110723495483,0.8682762384414673,0.0488106831908226
1737750028494209800,2.514209716796875,-0.8831124901771545,0.8214259147644043,-0.00007909588020993397
1737750028504277800,2.52427783203125,-0.8027963042259216,0.8205183148384094,-0.03362826630473137
1737750028514346000,2.534345947265625,-0.757116973400116,0.8407213091850281,-0.06087533384561539
1737750028524413000,2.544412841796875,-0.740513801574707,0.8604718446731567,-0.0630684494972229
1737750028534481000,2.55448095703125,-0.7472377419471741,0.8720531463623047,-0.04252402484416962
1737750028544548900,2.564548828125,-0.7473599910736084,0.8432609438896179,-0.012716061435639858
1737750028554616600,2.574616455078125,-0.7381912469863892,0.7906485795974731,0.028728850185871124
1737750028564683800,2.584683837890625,-0.7270906567573547,0.7290717959403992,0.08923320472240448
1737750028574751700,2.594751708984375,-0.7168813943862915,0.6709954142570496,0.15585777163505554
1737750028584819700,2.60481982421875,-0.6972355246543884,0.634417712688446,0.21967457234859467
1737750028594886700,2.61488671875,-0.6612557172775269,0.6207953691482544,0.2733252942562103
1737750028604954600,2.62495458984375,-0.6235264539718628,0.6310232281684875,0.3124585747718811
1737750028615022600,2.635022705078125,-0.5783147215843201,0.6572862863540649,0.33048364520072937
1737750028625090800,2.6450908203125,-0.5419953465461731,0.6846020221710205,0.32232666015625
1737750028635157800,2.65515771484375,-0.5204959511756897,0.7141678929328918,0.3074432909488678
1737750028645225700,2.665225830078125,-0.5077643990516663,0.7262373566627502,0.27736902236938477
1737750028655293700,2.675293701171875,-0.4986915588378906,0.7195456624031067,0.24887239933013916
1737750028665362000,2.68536181640625,-0.4881417155265808,0.7317679524421692,0.23007501661777496
1737750028675428900,2.695428955078125,-0.47847816348075867,0.7534263730049133,0.22035926580429077
1737750028685496800,2.705496826171875,-0.4718114733695984,0.7632004618644714,0.22086474299430847
1737750028695564800,2.715564697265625,-0.46053484082221985,0.7879025936126709,0.23293471336364746
1737750028705632800,2.7256328125,-0.48747965693473816,0.851177990436554,0.2523384988307953
1737750028715699700,2.73569970703125,-0.5672991275787354,0.8919592499732971,0.27012601494789124
1737750028725768000,2.745767822265625,-0.5875514149665833,0.9453742504119873,0.28795668482780457
1737750028735836000,2.7558359375,-0.5803123712539673,1.0371571779251099,0.3126537799835205
1737750028745903600,2.765903564453125,-0.5813371539115906,1.1181012392044067,0.3292495310306549
1737750028755970800,2.775970703125,-0.5872419476509094,1.1752220392227173,0.34262871742248535
1737750028766038800,2.786038818359375,-0.5971901416778564,1.2109042406082153,0.3644559979438782
1737750028776106800,2.796106689453125,-0.6028416752815247,1.2289314270019531,0.38703665137290955
1737750028786174700,2.8061748046875,-0.6121171712875366,1.1998616456985474,0.4064668118953705
1737750028796241700,2.81624169921875,-0.6078476309776306,1.1588330268859863,0.4237446188926697
1737750028806309600,2.8263095703125,-0.5801403522491455,1.0853625535964966,0.4195842146873474
1737750028816377900,2.8363779296875,-0.5421431660652161,1.0198599100112915,0.4194747805595398
1737750028826445800,2.84644580078125,-0.5060911774635315,0.9830177426338196,0.4185035228729248
1737750028836512800,2.8565126953125,-0.4671458899974823,0.949657142162323,0.4075366258621216
1737750028846580700,2.866580810546875,-0.42897772789001465,0.9375978112220764,0.38644278049468994
1737750028856648700,2.876648681640625,-0.3973580002784729,0.9278546571731567,0.37590304017066956
1737750028866715600,2.886715576171875,-0.37507668137550354,0.9166581630706787,0.36853542923927307
1737750028876783900,2.896783935546875,-0.3536270558834076,0.9040438532829285,0.36251455545425415
1737750028886851800,2.906851806640625,-0.321208655834198,0.9085792303085327,0.357861191034317
1737750028896919800,2.916919921875,-0.278173565864563,0.9000653624534607,0.3647705018520355
1737750028906986800,2.92698681640625,-0.22267009317874908,0.8679282069206238,0.3743040859699249
1737750028917054700,2.9370546875,-0.15526947379112244,0.8087450265884399,0.3944077491760254
1737750028927123000,2.947123046875,-0.07768706977367401,0.7779554128646851,0.41066983342170715
1737750028937190700,2.957190673828125,-0.004306064918637276,0.7733920812606812,0.4125271141529083
1737750028947257900,2.9672578125,0.0588366836309433,0.7869688868522644,0.39604294300079346
1737750028957325800,2.977325927734375,0.10757386684417725,0.8200011253356934,0.375005304813385
1737750028967393800,2.987393798828125,0.14045006036758423,0.867093563079834,0.34905678033828735
1737750028977461800,2.997461669921875,0.1594138890504837,0.9182097315788269,0.3155196011066437
1737750028987528700,3.00752880859375,0.16772614419460297,1.0050407648086548,0.250380277633667
1737750028997596700,3.0175966796875,0.15606975555419922,1.1088813543319702,0.14427675306797028
1737750029007664600,3.02766455078125,0.11039281636476517,1.2121937274932861,0.005656553898006678
1737750029017732900,3.03773291015625,0.0517398938536644,1.2773373126983643,-0.13913924992084503
1737750029027799800,3.0477998046875,-0.01775822415947914,1.2995805740356445,-0.293305903673172
1737750029037867800,3.05786767578125,-0.1062002032995224,1.2592424154281616,-0.4353804886341095
1737750029047935700,3.067935791015625,-0.19658762216567993,1.1217831373214722,-0.5483443140983582
1737750029058003700,3.078003662109375,-0.24817438423633575,0.8809020519256592,-0.6157736778259277
1737750029068070700,3.088070556640625,-0.24970410764217377,0.6292953491210938,-0.6515463590621948
1737750029078139000,3.098138916015625,-0.2298121601343155,0.41433700919151306,-0.6503173112869263
1737750029088206800,3.108206787109375,-0.2169424295425415,0.22364561259746552,-0.6096561551094055
1737750029098273800,3.118273681640625,-0.22979111969470978,0.07902291417121887,-0.5336679220199585
1737750029108341800,3.128341796875,-0.2526809871196747,-0.004541222471743822,-0.4423244297504425
1737750029118410000,3.138409912109375,-0.27589789032936096,-0.043113648891448975,-0.35476022958755493
1737750029128477700,3.148477783203125,-0.29055166244506836,-0.03705788776278496,-0.2896619141101837
1737750029138545000,3.158544921875,-0.29763728380203247,-0.007268831599503756,-0.20350012183189392
1737750029148612900,3.16861279296875,-0.29695576429367065,0.062197063118219376,-0.15648974478244781
1737750029158680600,3.1786806640625,-0.2899612486362457,0.13885322213172913,-0.14278458058834076
1737750029168748800,3.188748779296875,-0.28446581959724426,0.19456255435943604,-0.1574130654335022
1737750029178815700,3.198815673828125,-0.2892483174800873,0.22175103425979614,-0.18899495899677277
1737750029188883700,3.2088837890625,-0.3016751706600189,0.21762500703334808,-0.23689669370651245
1737750029198951700,3.21895166015625,-0.30597564578056335,0.20329825580120087,-0.28549593687057495
1737750029209019600,3.22901953125,-0.3024309575557709,0.18276634812355042,-0.33691996335983276
1737750029219086800,3.2390869140625,-0.28844696283340454,0.16829447448253632,-0.3776426315307617
1737750029229154800,3.24915478515625,-0.2776387929916382,0.20008409023284912,-0.40979525446891785
1737750029239222800,3.259222900390625,-0.273317813873291,0.23080284893512726,-0.43965408205986023
1737750029249290800,3.269290771484375,-0.2703915536403656,0.2652500569820404,-0.4512619972229004
1737750029259357700,3.279357666015625,-0.27076971530914307,0.2958311140537262,-0.4423457384109497
1737750029269426000,3.289426025390625,-0.2850991189479828,0.3137259781360626,-0.4218553602695465
1737750029279494000,3.299493896484375,-0.3099730312824249,0.31575262546539307,-0.3930889666080475
1737750029289561900,3.309561767578125,-0.34721869230270386,0.3165734112262726,-0.3531380891799927
1737750029299628800,3.31962890625,-0.3969212472438812,0.32220280170440674,-0.3055170476436615
1737750029309696800,3.32969677734375,-0.461866170167923,0.2972250282764435,-0.24599139392375946
1737750029319764700,3.3397646484375,-0.5185443758964539,0.29285264015197754,-0.19473965466022491
1737750029329832000,3.34983203125,-0.5720462203025818,0.30682626366615295,-0.14808879792690277
1737750029339900000,3.35989990234375,-0.6317929029464722,0.3215247690677643,-0.07787961512804031
1737750029349967600,3.369967529296875,-0.6790136694908142,0.34559839963912964,-0.000480434246128425
1737750029360035600,3.38003564453125,-0.7136361002922058,0.383746862411499,0.07187099754810333
1737750029370102800,3.390102783203125,-0.7348987460136414,0.44882625341415405,0.15470409393310547
1737750029380170800,3.400170654296875,-0.7431777119636536,0.499301940202713,0.2266339361667633
1737750029390238700,3.41023876953125,-0.7269505858421326,0.5425034761428833,0.2609197497367859
1737750029400306700,3.420306640625,-0.6874971389770508,0.6083256602287292,0.2875699996948242
1737750029410373600,3.43037353515625,-0.6543874144554138,0.6716042160987854,0.31706902384757996
1737750029420441000,3.440441162109375,-0.6717557311058044,0.6780024766921997,0.32442042231559753
1737750029430509300,3.45050927734375,-0.7488601207733154,0.6672560572624207,0.3341846466064453
1737750029440577300,3.460577392578125,-0.8558680415153503,0.6821311712265015,0.32616719603538513
1737750029450644200,3.470644287109375,-0.9559097290039062,0.7217270135879517,0.3501034080982208
1737750029460712200,3.480712158203125,-0.9950603246688843,0.8317038416862488,0.4293729364871979
1737750029470780400,3.490780517578125,-0.976635217666626,0.9809402227401733,0.4934251606464386
1737750029480848400,3.500848388671875,-0.9416343569755554,1.1236997842788696,0.5386650562286377
1737750029490915300,3.510915283203125,-0.9209519624710083,1.2481207847595215,0.5813297033309937
1737750029500983300,3.5209833984375,-0.9191125631332397,1.3764071464538574,0.6309614181518555
1737750029511051300,3.53105126953125,-0.9258729815483093,1.513783574104309,0.6980294585227966
1737750029521119200,3.541119140625,-0.9428445100784302,1.67216956615448,0.7696330547332764
1737750029531186400,3.5511865234375,-0.957574725151062,1.824245572090149,0.8468160033226013
1737750029541254400,3.56125439453125,-0.9713099598884583,1.9372150897979736,0.9192257523536682
1737750029551322000,3.571322021484375,-0.9882263541221619,1.989733338356018,0.9708812236785889
1737750029561390000,3.58139013671875,-1.0041736364364624,1.997853398323059,0.9992902278900146
1737750029571457300,3.591457275390625,-1.0266557931900024,1.9835708141326904,1.0244944095611572
1737750029581525200,3.601525146484375,-1.0609335899353027,1.9187651872634888,1.0572563409805298
1737750029591593200,3.61159326171875,-1.097294569015503,1.8001493215560913,1.0916467905044556
1737750029601661200,3.6216611328125,-1.1295576095581055,1.6214064359664917,1.1122010946273804
1737750029611728100,3.63172802734375,-1.1522712707519531,1.3883780241012573,1.1252832412719727
1737750029621796400,3.64179638671875,-1.183441162109375,1.1654554605484009,1.104569435119629
1737750029631864300,3.6518642578125,-1.2379597425460815,1.0087167024612427,1.0416747331619263
1737750029641932300,3.661932373046875,-1.304282546043396,0.9276930093765259,0.951155960559845
1737750029651999200,3.671999267578125,-1.3820418119430542,0.9027554392814636,0.8263536095619202
1737750029662067200,3.682067138671875,-1.4553067684173584,0.9212574362754822,0.6408209800720215
1737750029672135400,3.692135498046875,-1.5449881553649902,0.9511759281158447,0.4752594828605652
1737750029682202400,3.702202392578125,-1.6704070568084717,0.9492331743240356,0.4248112142086029
1737750029692270300,3.712270263671875,-1.7973685264587402,0.9134474396705627,0.43205660581588745
1737750029702338300,3.72233837890625,-1.8594062328338623,0.830112099647522,0.38974884152412415
1737750029712406300,3.73240625,-1.8498811721801758,0.7329612970352173,0.3190149962902069
1737750029722473500,3.742473388671875,-1.7936242818832397,0.6456725001335144,0.2046159952878952
1737750029732541400,3.75254150390625,-1.7250639200210571,0.5560097098350525,0.032224513590335846
1737750029742609200,3.762609130859375,-1.6658989191055298,0.4598240554332733,-0.12492223083972931
1737750029752677000,3.772677001953125,-1.627954125404358,0.3690677881240845,-0.198281392455101
1737750029762744000,3.782744140625,-1.6135085821151733,0.3960876762866974,-0.18515121936798096
1737750029772812300,3.792812255859375,-1.6103354692459106,0.5040522217750549,-0.1532745063304901
1737750029782880300,3.80288037109375,-1.5940712690353394,0.6679199934005737,-0.13386085629463196
1737750029792948200,3.8129482421875,-1.5663107633590698,0.8554552793502808,-0.09804879873991013
1737750029803015200,3.82301513671875,-1.5397441387176514,1.060172200202942,-0.051116712391376495
1737750029813083100,3.833083251953125,-1.531337857246399,1.298206090927124,0.014604242518544197
1737750029823151400,3.8431513671875,-1.552408218383789,1.5132166147232056,0.06987548619508743
1737750029833219300,3.85321923828125,-1.5816593170166016,1.6299326419830322,0.09260477125644684
1737750029843286300,3.863286376953125,-1.6122878789901733,1.615167260169983,0.07585002481937408
1737750029853354200,3.873354248046875,-1.6300314664840698,1.5084277391433716,0.03350016847252846
1737750029863422200,3.883422119140625,-1.6155246496200562,1.3605695962905884,-0.013904630206525326
1737750029873490400,3.893490478515625,-1.569064736366272,1.179627776145935,-0.05544115602970123
1737750029883557400,3.903557373046875,-1.5028971433639526,0.9613857269287109,-0.09431371837854385
1737750029893625300,3.913625244140625,-1.4290258884429932,0.7155144214630127,-0.14144420623779297
1737750029903693300,3.923693359375,-1.3612180948257446,0.48780614137649536,-0.1973399668931961
1737750029913761300,3.93376123046875,-1.3087745904922485,0.3116343319416046,-0.24707476794719696
1737750029923828500,3.943828369140625,-1.2549126148223877,0.2242610603570938,-0.2790183126926422
1737750029933896200,3.953896240234375,-1.1815404891967773,0.22791865468025208,-0.2928137481212616
1737750029943964200,3.963964111328125,-1.0948723554611206,0.3111139237880707,-0.3162629008293152
1737750029954032000,3.9740322265625,-0.9871041178703308,0.4630768299102783,-0.32738104462623596
1737750029964099000,3.98409912109375,-0.8771019577980042,0.6504976153373718,-0.33568745851516724
1737750029974167300,3.994167236328125,-0.7652241587638855,0.84804368019104,-0.3293350338935852
1737750029984235300,4.0042353515625,-0.666774570941925,1.0380690097808838,-0.29563963413238525
1737750029994303200,4.01430322265625,-0.5874336957931519,1.2072937488555908,-0.24639220535755157
1737750030004370200,4.0243701171875,-0.528997540473938,1.343119502067566,-0.19113481044769287
1737750030014438100,4.034438232421875,-0.4781540632247925,1.426736831665039,-0.14047269523143768
1737750030024506400,4.04450634765625,-0.4225565791130066,1.44673752784729,-0.10769157856702805
1737750030034573300,4.0545732421875,-0.36047428846359253,1.40774405002594,-0.08627496659755707
1737750030044641300,4.064641357421875,-0.30644702911376953,1.3169426918029785,-0.08476895093917847
1737750030054709200,4.074709228515625,-0.25664669275283813,1.2081265449523926,-0.0748223066329956
1737750030064777500,4.084777587890625,-0.2200562059879303,1.090354561805725,-0.048781655728816986
1737750030074844400,4.094844482421875,-0.1782703995704651,0.9835724830627441,-0.0519939586520195
1737750030084912400,4.104912353515625,-0.1418338268995285,0.9013431072235107,-0.08674075454473495
1737750030094980400,4.11498046875,-0.11943158507347107,0.8462383151054382,-0.1097150444984436
1737750030105048000,4.125048095703125,-0.10955286026000977,0.8194717168807983,-0.12136158347129822
1737750030115115300,4.135115234375,-0.11268899589776993,0.7930662035942078,-0.16155587136745453
1737750030125183200,4.145183349609375,-0.1285286843776703,0.7568139433860779,-0.22585630416870117
1737750030135251200,4.155251220703125,-0.146876260638237,0.7263835668563843,-0.28555426001548767
1737750030145319200,4.165319091796875,-0.1662193387746811,0.7150070667266846,-0.3023681044578552
1737750030155386000,4.17538623046875,-0.2121458202600479,0.6942259073257446,-0.291063517332077
1737750030165454300,4.185454345703125,-0.25869041681289673,0.6436005234718323,-0.26737284660339355
1737750030175522300,4.195522216796875,-0.2924148142337799,0.5378666520118713,-0.24131222069263458
1737750030185590300,4.20559033203125,-0.29504814743995667,0.4005618095397949,-0.2390511929988861
1737750030195657200,4.2156572265625,-0.28657716512680054,0.2666420638561249,-0.24559564888477325
1737750030205725200,4.22572509765625,-0.27142539620399475,0.15058551728725433,-0.23819072544574738
1737750030215793400,4.23579345703125,-0.2641381621360779,0.05028767138719559,-0.23351368308067322
1737750030225861400,4.245861328125,-0.261473149061203,-0.04254639521241188,-0.2384069710969925
1737750030235928300,4.25592822265625,-0.26839762926101685,-0.12728817760944366,-0.2616654336452484
1737750030245996300,4.265996337890625,-0.2805030345916748,-0.17092406749725342,-0.295472115278244
1737750030256064300,4.276064208984375,-0.30448585748672485,-0.18852730095386505,-0.32604894042015076
1737750030266132500,4.286132568359375,-0.32685908675193787,-0.19050896167755127,-0.37739017605781555
1737750030276199400,4.296199462890625,-0.3496900796890259,-0.17813538014888763,-0.46074897050857544
1737750030286267400,4.306267333984375,-0.366489052772522,-0.15631955862045288,-0.5595722198486328
1737750030296335000,4.316335205078125,-0.38815146684646606,-0.1200592964887619,-0.6739661693572998
1737750030306403000,4.326403076171875,-0.4158478081226349,-0.06210970878601074,-0.812035083770752
1737750030316470300,4.33647021484375,-0.427721232175827,0.04201456159353256,-0.9526848793029785
1737750030326538200,4.346538330078125,-0.4326978921890259,0.1865360587835312,-1.0251796245574951
1737750030336606200,4.356606201171875,-0.4423747658729553,0.3937299847602844,-1.0121707916259766
1737750030346674200,4.366674072265625,-0.4564996361732483,0.6620922088623047,-0.930376410484314
1737750030356741000,4.3767412109375,-0.45377787947654724,0.9671669006347656,-0.8157773613929749
1737750030366809300,4.386809326171875,-0.41645899415016174,1.2712922096252441,-0.7112288475036621
1737750030376877300,4.396877197265625,-0.3740699887275696,1.488224744796753,-0.6104905009269714
1737750030386945300,4.4069453125,-0.3608010709285736,1.5905643701553345,-0.5182737708091736
1737750030397012200,4.41701220703125,-0.3820190131664276,1.5912339687347412,-0.44149965047836304
1737750030407080200,4.427080078125,-0.4251779317855835,1.4893726110458374,-0.41229942440986633
1737750030417148400,4.4371484375,-0.48163747787475586,1.3438150882720947,-0.4165988266468048
1737750030427216600,4.447216552734375,-0.541920006275177,1.1866960525512695,-0.45206812024116516
1737750030437283800,4.457283935546875,-0.5850583910942078,1.0324641466140747,-0.4843459129333496
1737750030447351800,4.467351806640625,-0.5986631512641907,0.9064135551452637,-0.5076379179954529
1737750030457419500,4.47741943359375,-0.5792151689529419,0.8246659636497498,-0.5112020373344421
1737750030467487500,4.487487548828125,-0.527869701385498,0.7825352549552917,-0.5092246532440186
1737750030477554400,4.497554443359375,-0.46167227625846863,0.7624827027320862,-0.5040255784988403
1737750030487622700,4.50762255859375,-0.3929816484451294,0.7662604451179504,-0.5057356357574463
1737750030497690600,4.517690673828125,-0.34243857860565186,0.798803448677063,-0.5009571313858032
1737750030507757600,4.527757568359375,-0.3045995831489563,0.8479043841362,-0.4668833017349243
1737750030517825500,4.537825439453125,-0.2665044069290161,0.9152498841285706,-0.4212835729122162
1737750030527893500,4.5478935546875,-0.23682692646980286,1.0091495513916016,-0.36751943826675415
1737750030537961700,4.557961669921875,-0.22984836995601654,1.1232118606567383,-0.31862565875053406
1737750030548028700,4.568028564453125,-0.25080424547195435,1.2268264293670654,-0.27705878019332886
1737750030558096600,4.5780966796875,-0.2915138602256775,1.300817608833313,-0.23579707741737366
1737750030568164600,4.58816455078125,-0.35160064697265625,1.3439428806304932,-0.19395242631435394
1737750030578232600,4.598232666015625,-0.4063696265220642,1.3582819700241089,-0.17367565631866455
1737750030588299800,4.6082998046875,-0.44666990637779236,1.336995244026184,-0.1589457094669342
1737750030598367700,4.61836767578125,-0.4555611312389374,1.28214430809021,-0.15145502984523773
1737750030608435700,4.628435791015625,-0.45168861746788025,1.224186658859253,-0.1541118025779724
1737750030618503700,4.638503662109375,-0.45464181900024414,1.1707887649536133,-0.14839160442352295
1737750030628570600,4.648570556640625,-0.47064208984375,1.1203066110610962,-0.13671258091926575
1737750030638638800,4.658638916015625,-0.4991789162158966,1.0657600164413452,-0.1432434469461441
1737750030648706600,4.66870654296875,-0.5525007247924805,1.0115036964416504,-0.14544694125652313
1737750030658774500,4.6787744140625,-0.6108314394950867,0.9765071272850037,-0.14884459972381592
1737750030668841700,4.688841796875,-0.667003333568573,0.9607585072517395,-0.15233734250068665
1737750030678909400,4.698909423828125,-0.7039757370948792,0.9646430015563965,-0.1521967202425003
1737750030688977700,4.708977783203125,-0.7262922525405884,0.9773148894309998,-0.14857935905456543
1737750030699045600,4.719045654296875,-0.7373307347297668,1.009509801864624,-0.14004898071289062
1737750030709112600,4.729112548828125,-0.745746910572052,1.057561993598938,-0.13294340670108795
1737750030719180500,4.7391806640625,-0.752331554889679,1.106318712234497,-0.12780269980430603
1737750030729248800,4.749248779296875,-0.7623218894004822,1.143273949623108,-0.10543161630630493
1737750030739316700,4.759316650390625,-0.7745604515075684,1.1744356155395508,-0.06492520123720169
1737750030749383700,4.7693837890625,-0.7823227643966675,1.2094786167144775,-0.025890452787280083
1737750030759451600,4.77945166015625,-0.7908715009689331,1.246878981590271,0.006368417292833328
1737750030769519600,4.78951953125,-0.8027454614639282,1.284604549407959,0.024283502250909805
1737750030779587800,4.799587890625,-0.8317962884902954,1.322050929069519,0.043952278792858124
1737750030789654800,4.80965478515625,-0.8822304010391235,1.3554855585098267,0.06788717210292816
1737750030799722800,4.81972265625,-0.9451233744621277,1.3714547157287598,0.09568391740322113
1737750030809790700,4.829790771484375,-1.0078307390213013,1.3632186651229858,0.12425057590007782
1737750030819858400,4.8398583984375,-1.0569941997528076,1.3333251476287842,0.1322975903749466
1737750030829925600,4.849925537109375,-1.0774701833724976,1.2963123321533203,0.13827531039714813
1737750030839993600,4.85999365234375,-1.095715045928955,1.2745479345321655,0.15117166936397552
1737750030850061600,4.8700615234375,-1.1297720670700073,1.2717297077178955,0.1522313505411148
1737750030860129500,4.880129638671875,-1.1751145124435425,1.2546279430389404,0.1335173100233078
1737750030870196500,4.890196533203125,-1.2245478630065918,1.2190159559249878,0.07899601757526398
1737750030880264700,4.9002646484375,-1.2776397466659546,1.1729861497879028,-0.012865731492638588
1737750030890332700,4.910332763671875,-1.3330100774765015,1.1118676662445068,-0.12258530408143997
1737750030900400600,4.920400634765625,-1.3870803117752075,1.0306438207626343,-0.24077852070331573
1737750030910467600,4.930467529296875,-1.4416745901107788,0.8947227597236633,-0.3241003155708313
1737750030920535600,4.94053564453125,-1.4815130233764648,0.677091121673584,-0.36541926860809326
1737750030930603800,4.950603759765625,-1.4809268712997437,0.36993810534477234,-0.37586790323257446
1737750030940671700,4.960671630859375,-1.4510380029678345,0.028192488476634026,-0.36216673254966736
1737750030950738700,4.97073876953125,-1.3999500274658203,-0.31404581665992737,-0.3333393633365631
1737750030960806700,4.980806640625,-1.3311165571212769,-0.642793595790863,-0.2886158227920532
1737750030970874600,4.99087451171875,-1.2584304809570312,-0.9243331551551819,-0.24313515424728394
1737750030980942800,5.00094287109375,-1.1805037260055542,-1.1402193307876587,-0.19763104617595673
1737750030991009800,5.011009765625,-1.1055524349212646,-1.2794376611709595,-0.1710234135389328
1737750031001077800,5.021077880859375,-1.0437642335891724,-1.3514604568481445,-0.14882782101631165
1737750031011145500,5.0311455078125,-0.9978907108306885,-1.3855042457580566,-0.1402793526649475
1737750031021213400,5.04121337890625,-0.950476884841919,-1.3892982006072998,-0.13551761209964752
1737750031031280600,5.05128076171875,-0.8901746273040771,-1.3278182744979858,-0.1426761895418167
1737750031041348600,5.0613486328125,-0.819275975227356,-1.1971598863601685,-0.1529378890991211
1737750031051416600,5.07141650390625,-0.7212580442428589,-1.0036410093307495,-0.17180505394935608
1737750031061484500,5.081484619140625,-0.6196997165679932,-0.7681850790977478,-0.1717834770679474
1737750031071551500,5.091551513671875,-0.5308130383491516,-0.5109303593635559,-0.1522854119539261
1737750031081619700,5.10161962890625,-0.4608701467514038,-0.2783786356449127,-0.1355394572019577
1737750031091687700,5.111687744140625,-0.3845737874507904,-0.10621298849582672,-0.10597729682922363
1737750031101755600,5.121755615234375,-0.3003329336643219,0.011449195444583893,-0.06928373128175735
1737750031111822600,5.131822509765625,-0.2049185335636139,0.10340974479913712,-0.030121417716145515
1737750031121890600,5.141890625,-0.11109642684459686,0.17522402107715607,0.012409265153110027
1737750031131958800,5.151958740234375,-0.02954643964767456,0.23666687309741974,0.06788025051355362
1737750031142026800,5.16202685546875,0.033125996589660645,0.29657307267189026,0.11150495707988739
1737750031152093700,5.17209375,0.07593657821416855,0.3413083255290985,0.1406002640724182
1737750031162161700,5.18216162109375,0.10799331218004227,0.3655875623226166,0.15636377036571503
1737750031172229600,5.192229736328125,0.13680392503738403,0.3642887473106384,0.16775384545326233
1737750031182297600,5.202297607421875,0.16537564992904663,0.3526994585990906,0.1779835820198059
1737750031192364800,5.21236474609375,0.18686042726039886,0.3383205235004425,0.18988604843616486
1737750031202432500,5.2224326171875,0.20250889658927917,0.3209599256515503,0.1961551308631897
1737750031212500500,5.23250048828125,0.21475811302661896,0.30059686303138733,0.20218612253665924
1737750031222568700,5.242568603515625,0.22780147194862366,0.2982732355594635,0.21405689418315887
1737750031232635600,5.2526357421875,0.25242879986763,0.3120998442173004,0.2270192950963974
1737750031242703600,5.26270361328125,0.2792353630065918,0.3568766415119171,0.24092260003089905
1737750031252771600,5.272771484375,0.30925264954566956,0.41344910860061646,0.2607751488685608
1737750031262839600,5.282839599609375,0.33721452951431274,0.4707755148410797,0.27684998512268066
1737750031272906500,5.292906494140625,0.35805028676986694,0.5303381681442261,0.2879284620285034
1737750031282974700,5.302974609375,0.3728337585926056,0.5956817269325256,0.2848908603191376
1737750031293042700,5.313042724609375,0.38982924818992615,0.6570167541503906,0.28352171182632446
1737750031303110700,5.323110595703125,0.4036555886268616,0.7105002403259277,0.28046709299087524
1737750031313177600,5.333177490234375,0.41352739930152893,0.7651054263114929,0.28456994891166687
1737750031323245600,5.34324560546875,0.41598016023635864,0.8123477697372437,0.27453914284706116
1737750031333313800,5.353313720703125,0.41675859689712524,0.8400204181671143,0.2664572596549988
1737750031343381800,5.3633818359375,0.416545033454895,0.8437173962593079,0.2539302706718445
1737750031353448700,5.37344873046875,0.4187639653682709,0.8280079364776611,0.24233220517635345
1737750031363516700,5.3835166015625,0.41481077671051025,0.8029428124427795,0.2403944879770279
1737750031373584600,5.393584716796875,0.41731253266334534,0.7697584629058838,0.24076999723911285
1737750031383652600,5.403652587890625,0.4145127534866333,0.729989767074585,0.24571949243545532
1737750031393719600,5.413719482421875,0.4095563590526581,0.678509533405304,0.25194036960601807
1737750031403787500,5.42378759765625,0.40774592757225037,0.6260111927986145,0.2569931745529175
1737750031413855500,5.43385546875,0.3829878568649292,0.5970863103866577,0.2534162998199463
1737750031423919600,5.443919677734375,0.30223309993743896,0.5599517226219177,0.27375859022140503
1737750031433986600,5.453986572265625,0.16690216958522797,0.5142633318901062,0.21799491345882416
1737750031444054800,5.4640546875,0.03242158889770508,0.29692620038986206,0.13690458238124847
1737750031454122800,5.474122802734375,-0.026137594133615494,-0.006215285509824753,0.02785852923989296
1737750031464190700,5.484190673828125,-0.002299373270943761,-0.30900418758392334,-0.12170912325382233
1737750031474257700,5.494257568359375,0.0694509819149971,-0.4869938790798187,-0.1854417622089386
1737750031484326000,5.504325927734375,0.14846085011959076,-0.39269429445266724,-0.13871634006500244
1737750031494393900,5.514393798828125,0.21309790015220642,0.008685100823640823,0.015971509739756584
1737750031504461800,5.5244619140625,0.2689211964607239,0.5459411144256592,0.2244189977645874
1737750031514528800,5.53452880859375,0.3607054650783539,0.9484823942184448,0.329319030046463
1737750031524596700,5.5445966796875,0.3920511305332184,1.1602308750152588,0.3127555251121521
1737750031534665000,5.5546650390625,0.30702438950538635,1.219038486480713,0.28514784574508667
1737750031544733000,5.56473291015625,0.2091582715511322,1.1081902980804443,0.24110954999923706
1737750031554799900,5.5747998046875,0.16699537634849548,0.7738858461380005,0.15492939949035645
1737750031564867800,5.584867919921875,0.17364875972270966,0.2492295354604721,0.031324367970228195
1737750031574935600,5.594935546875,0.19467654824256897,-0.33128684759140015,-0.08823665231466293
1737750031585003800,5.605003662109375,0.2059723436832428,-0.8149864077568054,-0.17527195811271667
1737750031595070700,5.61507080078125,0.22579078376293182,-1.0918898582458496,-0.1937585473060608
1737750031605138700,5.625138671875,0.2541539967060089,-1.1487106084823608,-0.1535099297761917
1737750031615206700,5.63520654296875,0.2911599278450012,-1.0323046445846558,-0.05161765590310097
1737750031625274600,5.645274658203125,0.3237794041633606,-0.7868669033050537,0.07198790460824966
1737750031635341800,5.655341796875,0.3407812714576721,-0.4759444296360016,0.19010096788406372
1737750031645409800,5.665409912109375,0.3476852774620056,-0.20103536546230316,0.27196386456489563
1737750031655477800,5.675477783203125,0.3494381606578827,-0.056590307503938675,0.291804701089859
1737750031665545700,5.685545654296875,0.36305302381515503,-0.09099488705396652,0.27765902876853943
1737750031675612700,5.69561279296875,0.39270707964897156,-0.2880232632160187,0.24101661145687103
1737750031685681000,5.705680908203125,0.41781455278396606,-0.6057695150375366,0.16737382113933563
1737750031695748900,5.715748779296875,0.4253361225128174,-0.9914357662200928,0.08763664215803146
1737750031705816800,5.72581689453125,0.4153929352760315,-1.3794004917144775,0.04111601039767265
1737750031715883800,5.7358837890625,0.40281057357788086,-1.7091176509857178,0.03759424760937691
1737750031725951700,5.74595166015625,0.39580991864204407,-1.9410135746002197,0.0814405307173729
1737750031736020000,5.75602001953125,0.4024904668331146,-2.0857925415039062,0.13418443500995636
1737750031746087700,5.766087646484375,0.4179258644580841,-2.1643943786621094,0.2061275988817215
1737750031756155000,5.77615478515625,0.43813180923461914,-2.1938633918762207,0.27916640043258667
1737750031766222600,5.78622265625,0.45799580216407776,-2.1736583709716797,0.3538462221622467
1737750031776290600,5.79629052734375,0.4825533330440521,-2.1338798999786377,0.40535682439804077
1737750031786358800,5.80635888671875,0.5194857716560364,-2.1170198917388916,0.44525575637817383
1737750031796425700,5.81642578125,0.5758145451545715,-2.08902907371521,0.4839935600757599
1737750031806493700,5.82649365234375,0.649806797504425,-1.9918402433395386,0.5257540941238403
1737750031816561700,5.836561767578125,0.7374293208122253,-1.8335975408554077,0.5745112299919128
1737750031826630000,5.8466298828125,0.8287043571472168,-1.6521977186203003,0.6287909746170044
1737750031836696800,5.85669677734375,0.9248969554901123,-1.4783576726913452,0.6728018522262573
1737750031846764800,5.866764892578125,1.008670449256897,-1.338727355003357,0.682015061378479
1737750031856832800,5.876832763671875,1.0650495290756226,-1.24577796459198,0.674252450466156
1737750031866900700,5.886900634765625,1.0865774154663086,-1.2067840099334717,0.6707621216773987
1737750031876967700,5.8969677734375,1.081607460975647,-1.2398838996887207,0.6962738633155823
1737750031887036000,5.907035888671875,1.0898305177688599,-1.3613722324371338,0.7278571128845215
1737750031897104000,5.917103759765625,1.1085439920425415,-1.5223393440246582,0.7458305358886719
1737750031907171800,5.927171875,1.136160969734192,-1.6664972305297852,0.7798380255699158
1737750031917239600,5.937239501953125,1.1621787548065186,-1.7741947174072266,0.8017444014549255
1737750031927306800,5.947306640625,1.1829655170440674,-1.853340983390808,0.8075511455535889
1737750031937374700,5.957374755859375,1.1854758262634277,-1.9003310203552246,0.8147299289703369
1737750031947442700,5.967442626953125,1.1857693195343018,-1.923299789428711,0.8120865225791931
1737750031957510700,5.9775107421875,1.2023288011550903,-1.9357444047927856,0.8248398303985596
1737750031967577600,5.98757763671875,1.247873067855835,-1.9220325946807861,0.8509430885314941
1737750031977645800,5.997645751953125,1.2967442274093628,-1.8360884189605713,0.8855345845222473
1737750031987713800,6.0077138671875,1.326984167098999,-1.6652461290359497,0.9148861169815063
1737750031997781800,6.01778173828125,1.3593780994415283,-1.4717704057693481,0.9393051862716675
1737750032007848700,6.0278486328125,1.4205772876739502,-1.2688713073730469,0.935606837272644
1737750032017916700,6.037916748046875,1.4657330513000488,-1.084816575050354,0.8922052979469299
1737750032027985000,6.04798486328125,1.521992802619934,-0.9456402659416199,0.851116955280304
1737750032038052900,6.058052978515625,1.600431203842163,-0.8267378807067871,0.7946454286575317
1737750032048119800,6.068119873046875,1.6784588098526,-0.7148424983024597,0.7085619568824768
1737750032058187800,6.078187744140625,1.752214789390564,-0.6370097398757935,0.61171555519104
1737750032068255700,6.088255859375,1.8137428760528564,-0.5980114936828613,0.5510700941085815
1737750032078324000,6.098323974609375,1.8603631258010864,-0.6231901049613953,0.4908967614173889
1737750032088391000,6.108390869140625,1.884987235069275,-0.7206303477287292,0.4510713219642639
1737750032098459000,6.118458984375,1.8778369426727295,-0.8631006479263306,0.42865467071533203
1737750032108526600,6.128526611328125,1.8603650331497192,-1.0445541143417358,0.40151122212409973
1737750032118594800,6.1385947265625,1.84624445438385,-1.2484537363052368,0.35640472173690796
1737750032128661800,6.148661865234375,1.8377997875213623,-1.4071248769760132,0.3235122859477997
1737750032138729700,6.158729736328125,1.8573551177978516,-1.4927350282669067,0.2778167128562927
1737750032148797700,6.168797607421875,1.9016413688659668,-1.5271849632263184,0.1972813755273819
1737750032158865700,6.17886572265625,1.9821785688400269,-1.512279748916626,0.10519886016845703
1737750032168932600,6.1889326171875,2.0559451580047607,-1.4396662712097168,-0.008766593411564827
1737750032179000800,6.199000732421875,2.1290431022644043,-1.2920442819595337,-0.11815673112869263
1737750032189068800,6.20906884765625,2.2003564834594727,-1.0829241275787354,-0.23547403514385223
1737750032199136800,6.21913671875,2.228928327560425,-0.8397844433784485,-0.35977521538734436
1737750032209204700,6.229204833984375,2.1901066303253174,-0.6180022358894348,-0.5085007548332214
1737750032219271700,6.239271728515625,2.1183807849884033,-0.4848862588405609,-0.6742658019065857
1737750032229340000,6.24933984375,2.043968915939331,-0.473592072725296,-0.808440089225769
1737750032239407900,6.259407958984375,1.973198652267456,-0.6163971424102783,-0.8237386345863342
1737750032249474800,6.269474853515625,1.9233708381652832,-0.8903520107269287,-0.7794787287712097
1737750032259542800,6.279542724609375,1.8888109922409058,-1.2463912963867188,-0.7570048570632935
1737750032269611000,6.289611083984375,1.8823909759521484,-1.6290431022644043,-0.8018724918365479
1737750032279678700,6.2996787109375,1.9057378768920898,-2.008471727371216,-0.910290002822876
1737750032289746700,6.30974658203125,1.9614477157592773,-2.3613765239715576,-0.9910663366317749
1737750032299813600,6.319813720703125,2.042713165283203,-2.6692235469818115,-1.0385915040969849
1737750032309881600,6.329881591796875,2.1061041355133057,-2.9630157947540283,-1.0375707149505615
1737750032319949800,6.33994970703125,2.1840133666992188,-3.291130781173706,-0.9582663178443909
1737750032330017800,6.350017822265625,2.262036085128784,-3.662130117416382,-0.8819100260734558
1737750032340084700,6.360084716796875,2.363178014755249,-3.9542601108551025,-0.8518062233924866
1737750032350152700,6.370152587890625,2.4762589931488037,-4.217014312744141,-0.8664296269416809
1737750032360220700,6.380220703125,2.5696966648101807,-4.39512300491333,-0.865225613117218
1737750032370289000,6.390288818359375,2.6756277084350586,-4.531489849090576,-0.853651762008667
1737750032380355800,6.40035595703125,2.8071134090423584,-4.652824878692627,-0.8207452297210693
1737750032390423800,6.410423828125,2.9673290252685547,-4.7351179122924805,-0.7932877540588379
1737750032400491800,6.42049169921875,3.141490936279297,-4.8030781745910645,-0.8010215759277344
1737750032410559700,6.430559814453125,3.2772974967956543,-4.8210883140563965,-0.7811592221260071
1737750032420627700,6.440627685546875,3.349496364593506,-4.81538200378418,-0.7384985685348511
1737750032430695400,6.4506953125,3.402395486831665,-4.7834343910217285,-0.7245936393737793
1737750032440763400,6.460763427734375,3.3831262588500977,-4.718664646148682,-0.7645711898803711
1737750032450831400,6.470831298828125,3.225673198699951,-4.656258583068848,-0.8910180330276489
1737750032460898600,6.480898681640625,2.9572858810424805,-4.589777946472168,-1.0707801580429077
1737750032470966500,6.490966552734375,2.6313424110412598,-4.430044174194336,-1.2829655408859253
1737750032481034500,6.501034423828125,2.2644145488739014,-4.032382011413574,-1.4265717267990112
1737750032491102500,6.5111025390625,1.9157683849334717,-3.3769280910491943,-1.444210410118103
1737750032501169400,6.52116943359375,1.7716960906982422,-2.5036866664886475,-1.2240010499954224
1737750032511237600,6.531237548828125,1.8102259635925293,-1.540534257888794,-0.8126404285430908
1737750032521305600,6.5413056640625,1.88932204246521,-0.5506381392478943,-0.4160105288028717
1737750032531373600,6.55137353515625,1.945794701576233,0.312432199716568,-0.1267145425081253
1737750032541440500,6.5614404296875,1.9252779483795166,0.7195008993148804,-0.0028181569650769234
1737750032551508500,6.571508544921875,1.8484915494918823,0.6596047878265381,-0.07295703142881393
1737750032561576700,6.58157666015625,1.7340701818466187,0.3135368824005127,-0.2607215940952301
1737750032571644700,6.591644775390625,1.57481050491333,-0.1929798424243927,-0.4507051110267639
1737750032581711600,6.601711669921875,1.3834831714630127,-0.7214876413345337,-0.5248464345932007
1737750032591779600,6.611779541015625,1.2078306674957275,-1.2077062129974365,-0.4888269305229187
1737750032601847300,6.621847412109375,1.0131785869598389,-1.6660264730453491,-0.4284474849700928
1737750032611915500,6.63191552734375,0.7936595678329468,-2.0666959285736084,-0.42467617988586426
1737750032621983500,6.6419833984375,0.6153992414474487,-2.353278160095215,-0.4126448333263397
1737750032632050400,6.652050537109375,0.492159903049469,-2.4866580963134766,-0.3830645680427551
1737750032642118400,6.662118408203125,0.40047311782836914,-2.4698941707611084,-0.3117983639240265
1737750032652186600,6.6721865234375,0.28493160009384155,-2.3116421699523926,-0.18854807317256927
1737750032662254600,6.682254638671875,0.12243936210870743,-2.062795877456665,-0.06180664151906967
1737750032672321500,6.692321533203125,-0.03448553755879402,-1.7880316972732544,0.02522199973464012
1737750032682389500,6.702389404296875,-0.16080379486083984,-1.4987969398498535,0.09239411354064941
1737750032692457500,6.71245751953125,-0.24520203471183777,-1.2295913696289062,0.21636852622032166
1737750032702525700,6.722525634765625,-0.2883412539958954,-0.9931995272636414,0.3229929804801941
1737750032712592600,6.732592529296875,-0.3314775228500366,-0.8105133771896362,0.3827492296695709
1737750032722660600,6.74266064453125,-0.4159085154533386,-0.7679371237754822,0.3805087208747864
1737750032732728600,6.752728515625,-0.5326915979385376,-0.8406100273132324,0.2769615650177002
1737750032742796500,6.762796630859375,-0.6457371711730957,-0.9453138113021851,0.11373508721590042
1737750032752863500,6.772863525390625,-0.7401425242424011,-1.05457603931427,-0.0392395481467247
1737750032762931700,6.782931640625,-0.7998561859130859,-1.200716257095337,-0.14799664914608002
1737750032772999400,6.79299951171875,-0.8458660244941711,-1.3711575269699097,-0.2638697326183319
1737750032783067400,6.8030673828125,-0.8872672915458679,-1.5561044216156006,-0.41741642355918884
1737750032793134300,6.81313427734375,-0.9334784150123596,-1.7264682054519653,-0.6138229370117188
1737750032803202600,6.82320263671875,-0.9489412903785706,-1.850432276725769,-0.7642217874526978
1737750032813270500,6.8332705078125,-0.9207592010498047,-1.9606266021728516,-0.8225482106208801
1737750032823338500,6.84333837890625,-0.8636367917060852,-2.096924066543579,-0.8447919487953186
1737750032833405400,6.853405517578125,-0.7763042449951172,-2.2407901287078857,-0.8624103665351868
1737750032843473400,6.863473388671875,-0.6468179225921631,-2.3496668338775635,-0.8729101419448853
1737750032853541600,6.873541748046875,-0.47310951352119446,-2.3799326419830322,-0.8640841841697693
1737750032863609600,6.883609619140625,-0.29468169808387756,-2.349865436553955,-0.8493587374687195
1737750032873676500,6.893676513671875,-0.15360048413276672,-2.2975316047668457,-0.8601219058036804
1737750032883744500,6.90374462890625,-0.06984858959913254,-2.2362027168273926,-0.8895671963691711
1737750032893812500,6.9138125,-0.03380510210990906,-2.156994104385376,-0.9279515743255615
1737750032903880700,6.923880615234375,-0.035597674548625946,-2.066657781600952,-0.9599212408065796
1737750032913948400,6.933948486328125,-0.032329708337783813,-1.9763017892837524,-0.9886700510978699
1737750032924015600,6.944015625,0.002254632068797946,-1.8971585035324097,-0.9921249747276306
1737750032934083600,6.95408349609375,0.043358393013477325,-1.8292851448059082,-0.957874059677124
1737750032944151300,6.9641513671875,0.0744827538728714,-1.7808369398117065,-0.9542710781097412
1737750032954219500,6.974219482421875,0.11085034906864166,-1.7491426467895508,-0.9926301836967468
1737750032964286500,6.984286376953125,0.15492966771125793,-1.7260303497314453,-1.0106313228607178
1737750032974354400,6.9943544921875,0.20370438694953918,-1.6955848932266235,-1.0135817527770996
1737750032984422400,7.00442236328125,0.23007741570472717,-1.6754816770553589,-1.0273098945617676
1737750032994490600,7.01449072265625,0.24075455963611603,-1.6565812826156616,-1.0266752243041992
1737750033004557600,7.0245576171875,0.24071194231510162,-1.6304255723953247,-1.0105223655700684
1737750033014625500,7.03462548828125,0.23878221213817596,-1.5896954536437988,-1.0111359357833862
1737750033024693500,7.044693603515625,0.24959571659564972,-1.5329400300979614,-1.0098621845245361
1737750033034761500,7.054761474609375,0.2522197365760803,-1.4525834321975708,-0.9593100547790527
1737750033044828400,7.064828369140625,0.2507496774196625,-1.3740816116333008,-0.8870986700057983
1737750033054896600,7.074896728515625,0.2389334887266159,-1.3168540000915527,-0.8256092071533203
1737750033064964600,7.084964599609375,0.22337689995765686,-1.2998548746109009,-0.7960281372070312
1737750033075032600,7.095032470703125,0.20208998024463654,-1.276451826095581,-0.8026583790779114
1737750033085100300,7.105100341796875,0.16622252762317657,-1.1920500993728638,-0.8415650129318237
1737750033095167700,7.115167724609375,0.16072310507297516,-0.9878119826316833,-0.8216453790664673
1737750033105235500,7.1252353515625,0.21455517411231995,-0.6975148916244507,-0.7450403571128845
1737750033115303400,7.135303466796875,0.25402748584747314,-0.3688158392906189,-0.6513572931289673
1737750033125371400,7.145371337890625,0.17867520451545715,-0.1284370720386505,-0.5822692513465881
1737750033135438300,7.155438232421875,-0.014185859821736813,-0.029570408165454865,-0.5181355476379395
1737750033145506600,7.165506591796875,-0.21119986474514008,-0.05770111456513405,-0.4131942391395569
1737750033155574500,7.175574462890625,-0.3169550597667694,-0.14306500554084778,-0.3252345621585846
1737750033165642500,7.185642578125,-0.3537386357784271,-0.20715957880020142,-0.24919651448726654
1737750033175709400,7.19570947265625,-0.364431768655777,-0.2644508183002472,-0.1911156326532364
1737750033185777400,7.20577734375,-0.3583030104637146,-0.40996915102005005,-0.2011328488588333
1737750033195845600,7.215845703125,-0.3872891366481781,-0.6135920286178589,-0.2627525329589844
1737750033205913600,7.22591357421875,-0.44667044281959534,-0.8134694695472717,-0.31512120366096497
1737750033215980500,7.23598046875,-0.5394006371498108,-0.9866300821304321,-0.37197062373161316
1737750033226048500,7.246048583984375,-0.6599350571632385,-1.103353500366211,-0.42908719182014465
1737750033236116500,7.256116455078125,-0.7867798209190369,-1.1665189266204834,-0.48173442482948303
1737750033246184700,7.266184814453125,-0.8723431825637817,-1.1677935123443604,-0.515837550163269
1737750033256251600,7.276251708984375,-0.9232761263847351,-1.122025966644287,-0.5147586464881897
1737750033266319600,7.286319580078125,-0.9880226254463196,-1.0635485649108887,-0.4942757785320282
1737750033276387300,7.29638720703125,-1.0691345930099487,-1.0505118370056152,-0.44391965866088867
1737750033286455600,7.30645556640625,-1.1206525564193726,-1.0545278787612915,-0.3568896949291229
1737750033296522500,7.3165224609375,-1.094607949256897,-1.004809856414795,-0.300025075674057
1737750033306590500,7.326590576171875,-0.9578074812889099,-0.8305799961090088,-0.28527942299842834
1737750033316658400,7.336658447265625,-0.7617626190185547,-0.5460342764854431,-0.2972186207771301
1737750033326726400,7.346726318359375,-0.5887916088104248,-0.17754974961280823,-0.2904835045337677
1737750033336794600,7.356794677734375,-0.49190956354141235,0.17998947203159332,-0.16011962294578552
1737750033346861600,7.366861572265625,-0.48013678193092346,0.45042097568511963,0.03531111776828766
1737750033356929500,7.376929443359375,-0.49695518612861633,0.6696223020553589,0.16679270565509796
1737750033366997500,7.38699755859375,-0.4875648617744446,0.7456166744232178,0.18829187750816345
1737750033377065500,7.3970654296875,-0.43193089962005615,0.6096795797348022,0.13976988196372986
1737750033387132400,7.40713232421875,-0.36943984031677246,0.37857580184936523,0.09984137862920761
1737750033397200600,7.41720068359375,-0.37157702445983887,0.061338990926742554,0.013969345018267632
1737750033407268600,7.4272685546875,-0.3861415684223175,-0.34243059158325195,-0.10128267854452133
1737750033417336600,7.437336669921875,-0.39487141370773315,-0.7288789749145508,-0.16639909148216248
1737750033427406000,7.447406005859375,-0.40720105171203613,-0.9479383230209351,-0.14702832698822021
1737750033437474000,7.45747412109375,-0.39081570506095886,-0.9546558856964111,-0.03570207208395004
1737750033447542000,7.4675419921875,-0.35477539896965027,-0.7869603633880615,0.13270798325538635
1737750033457610200,7.4776103515625,-0.32406648993492126,-0.5358916521072388,0.2831467390060425
1737750033467677200,7.48767724609375,-0.319047749042511,-0.30842867493629456,0.40907058119773865
1737750033477745200,7.4977451171875,-0.33575910329818726,-0.12348411977291107,0.4267965853214264
1737750033487813000,7.507813232421875,-0.34836384654045105,0.00384400668554008,0.2973392605781555
1737750033497880800,7.517880859375,-0.3416960835456848,0.04580743610858917,0.0990259125828743
1737750033507948000,7.527947998046875,-0.3261602520942688,-0.05167917162179947,-0.13866093754768372
1737750033518016000,7.53801611328125,-0.30191510915756226,-0.17866428196430206,-0.3265935480594635
1737750033528084000,7.548083984375,-0.3132878839969635,-0.16220808029174805,-0.40337222814559937
1737750033538152000,7.55815185546875,-0.36869919300079346,-0.08435749262571335,-0.34374165534973145
1737750033548219000,7.568218994140625,-0.45035117864608765,-0.1125451847910881,-0.23873001337051392
1737750033558286800,7.578286865234375,-0.5294463038444519,-0.2839299738407135,-0.1556532382965088
1737750033568355000,7.58835498046875,-0.566583514213562,-0.5201308131217957,-0.12269049882888794
1737750033578423000,7.598423095703125,-0.5451061725616455,-0.7478278875350952,-0.1721603125333786
1737750033588490000,7.608489990234375,-0.44513219594955444,-0.9145553708076477,-0.2683214545249939
1737750033598558000,7.618557861328125,-0.3085269331932068,-0.9664952158927917,-0.3170738220214844
1737750033608626200,7.628626220703125,-0.20531107485294342,-0.8648799061775208,-0.30821987986564636
1737750033618694100,7.638694091796875,-0.1759158968925476,-0.6472858190536499,-0.2511475384235382
1737750033628762000,7.64876220703125,-0.2316681146621704,-0.38779112696647644,-0.1546071469783783
1737750033638829000,7.6588291015625,-0.33600491285324097,-0.15918725728988647,-0.07131332904100418
1737750033648897000,7.66889697265625,-0.4363163411617279,-0.009848369285464287,-0.01787993125617504
1737750033658965000,7.678965087890625,-0.4841988980770111,0.052868008613586426,0.005100752227008343
1737750033669033000,7.689032958984375,-0.4799130856990814,0.0183438528329134,0.017420535907149315
1737750033679100200,7.69910009765625,-0.45191606879234314,-0.11423975974321365,0.04069629684090614
1737750033689168000,7.70916796875,-0.4259965717792511,-0.3286697566509247,0.08032120764255524
1737750033699235800,7.71923583984375,-0.41656365990638733,-0.5905852913856506,0.13335326313972473
1737750033709304000,7.729303955078125,-0.4171634018421173,-0.8580062985420227,0.19682252407073975
1737750033719371000,7.73937109375,-0.40500500798225403,-1.0969538688659668,0.2603359818458557
1737750033729439000,7.74943896484375,-0.360137939453125,-1.2560783624649048,0.3167198896408081
1737750033739507000,7.7595068359375,-0.30988195538520813,-1.3138781785964966,0.40029147267341614
1737750033749575200,7.7695751953125,-0.266590416431427,-1.2696231603622437,0.49779993295669556
1737750033759642000,7.77964208984375,-0.21342892944812775,-1.1481199264526367,0.5651360750198364
1737750033769710000,7.7897099609375,-0.15039695799350739,-1.0174700021743774,0.6287659406661987
1737750033779778000,7.799778076171875,-0.08533433824777603,-0.8641736507415771,0.6759665012359619
1737750033789846000,7.809845947265625,-0.02816505916416645,-0.6878982186317444,0.6874316334724426
1737750033799913000,7.819912841796875,0.019482888281345367,-0.5605480074882507,0.6768423914909363
1737750033809981200,7.829981201171875,0.10051462054252625,-0.44732770323753357,0.6745731234550476
1737750033820049200,7.840049072265625,0.2139090895652771,-0.3175923526287079,0.7133694887161255
1737750033830116900,7.850116943359375,0.33990350365638733,-0.22683954238891602,0.7617977857589722
1737750033840184000,7.86018408203125,0.4277055263519287,-0.1675538420677185,0.8012951016426086
1737750033850252000,7.870251953125,0.4424266815185547,-0.20208118855953217,0.8236680626869202
1737750033860320000,7.880320068359375,0.3985860049724579,-0.33798763155937195,0.8214293718338013
1737750033870388000,7.890387939453125,0.31028836965560913,-0.479539155960083,0.8014631271362305
1737750033880456000,7.9004560546875,0.22647787630558014,-0.586897075176239,0.784088671207428
1737750033890523000,7.91052294921875,0.19034650921821594,-0.6558843851089478,0.761737585067749
1737750033900591000,7.920591064453125,0.17890290915966034,-0.6564342975616455,0.7166494727134705
1737750033910659000,7.9306591796875,0.17893965542316437,-0.5872741341590881,0.6588221192359924
1737750033920727000,7.94072705078125,0.18023422360420227,-0.4781511425971985,0.6157193779945374
1737750033930794000,7.9507939453125,0.15984265506267548,-0.3310815095901489,0.5725961327552795
1737750033940862000,7.960862060546875,0.14896604418754578,-0.09197279810905457,0.5360810160636902
1737750033950930200,7.97093017578125,0.16631360352039337,0.21629714965820312,0.5511409044265747
1737750033960998100,7.980998046875,0.17989173531532288,0.5107783079147339,0.6203942894935608
1737750033971065000,7.991065185546875,0.14009025692939758,0.6715520024299622,0.6963852047920227
1737750033981133000,8.001133056640626,0.06623787432909012,0.7157652974128723,0.7661474943161011
1737750033991201000,8.011200927734375,-0.006489857099950314,0.7514649629592896,0.8068326115608215
1737750034001269000,8.02126904296875,-0.06655479222536087,0.8143637776374817,0.7956420183181763
1737750034011336200,8.031336181640626,-0.10778265446424484,0.8544978499412537,0.7315277457237244
1737750034021404000,8.04140380859375,-0.15281936526298523,0.8205047249794006,0.6456480026245117
1737750034031471900,8.051471923828124,-0.20598432421684265,0.7377973198890686,0.5681960582733154
1737750034041539800,8.061539794921876,-0.26478052139282227,0.6555107235908508,0.5016071796417236
1737750034051607000,8.07160693359375,-0.3148290514945984,0.6191990375518799,0.4603012800216675
1737750034061675000,8.081675048828124,-0.37176769971847534,0.6556550860404968,0.4495178759098053
1737750034071743000,8.091742919921876,-0.4325631260871887,0.7404213547706604,0.4272828996181488
1737750034081811000,8.10181103515625,-0.4714013338088989,0.8396616578102112,0.38332635164260864
1737750034091878000,8.1118779296875,-0.47360989451408386,0.9413999915122986,0.3277254104614258
1737750034101946000,8.121946044921875,-0.4377776086330414,1.0520809888839722,0.26277968287467957
1737750034112014000,8.13201416015625,-0.376797080039978,1.158557415008545,0.1802872121334076
1737750034122082000,8.14208203125,-0.2943567931652069,1.2531217336654663,0.1163276731967926
1737750034132150000,8.15214990234375,-0.20932872593402863,1.3267862796783447,0.05381502956151962
1737750034142217000,8.162217041015625,-0.15686950087547302,1.3636103868484497,-0.006040315609425306
1737750034152285200,8.17228515625,-0.1254418045282364,1.3894749879837036,-0.06100316718220711
1737750034162353200,8.182353271484375,-0.10386914014816284,1.3965659141540527,-0.10669901221990585
1737750034172420900,8.1924208984375,-0.07704764604568481,1.3583141565322876,-0.15970391035079956
1737750034182488000,8.202488037109376,-0.02136281318962574,1.2679394483566284,-0.20391903817653656
1737750034192556000,8.21255615234375,0.04127952829003334,1.162737488746643,-0.2601138651371002
1737750034202624000,8.2226240234375,0.10419031977653503,1.0528311729431152,-0.2864634394645691
1737750034212692000,8.23269189453125,0.13786892592906952,0.9670198559761047,-0.30761533975601196
1737750034222759000,8.242759033203125,0.15429076552391052,0.892196536064148,-0.333877295255661
1737750034232827000,8.252826904296874,0.16545873880386353,0.8276976943016052,-0.32653549313545227
1737750034242895000,8.26289501953125,0.17172542214393616,0.7827451229095459,-0.3234265446662903
1737750034252963000,8.272963134765625,0.197439044713974,0.7250573039054871,-0.4110570549964905
1737750034263030000,8.283030029296874,0.31687915325164795,0.6250231266021729,-0.4805471897125244
1737750034273098000,8.293097900390626,0.5229920744895935,0.6682736873626709,-0.373925119638443
1737750034283166000,8.303166015625,0.5882834792137146,0.9755414724349976,-0.26510968804359436
1737750034293234200,8.313234130859374,0.5067276358604431,1.2470721006393433,-0.32337886095046997
1737750034303301000,8.323301025390625,0.4370569586753845,1.2348535060882568,-0.42362478375434875
1737750034313369000,8.333369140625,0.4333735406398773,1.077115774154663,-0.49019473791122437
1737750034323437000,8.34343701171875,0.4416106939315796,0.9448919296264648,-0.5479184985160828
1737750034333505000,8.353505126953126,0.41766834259033203,0.8595136404037476,-0.5704813003540039
1737750034343572000,8.363572021484375,0.38308480381965637,0.7896560430526733,-0.5942641496658325
1737750034353640200,8.37364013671875,0.32049092650413513,0.7490785121917725,-0.6066571474075317
1737750034363708000,8.3837080078125,0.2262006402015686,0.7063126564025879,-0.5975385308265686
1737750034373776000,8.39377587890625,0.12951910495758057,0.6321574449539185,-0.5686644911766052
1737750034383844000,8.403843994140624,0.072363942861557,0.547978401184082,-0.5571817755699158
1737750034393911000,8.4139111328125,0.0392182432115078,0.49336203932762146,-0.569266140460968
1737750034403979000,8.42397900390625,0.020017649978399277,0.4574032425880432,-0.5716813206672668
1737750034414047000,8.434046875,0.022155368700623512,0.46881088614463806,-0.5712339282035828
1737750034424111900,8.44411181640625,0.05007035657763481,0.530119001865387,-0.5656639337539673
1737750034434178800,8.4541787109375,0.10905192047357559,0.6090081930160522,-0.5252813696861267
1737750034444246800,8.464246826171875,0.1926642507314682,0.7052285075187683,-0.4871787130832672
1737750034454314800,8.474314697265624,0.28150516748428345,0.7727103233337402,-0.4163855016231537
1737750034464383000,8.484383056640626,0.3580215275287628,0.7664896845817566,-0.3530624508857727
1737750034474450000,8.494449951171875,0.42195311188697815,0.6974544525146484,-0.29595255851745605
1737750034484518000,8.504517822265624,0.470751017332077,0.5934481620788574,-0.2351485937833786
1737750034494585900,8.5145859375,0.48339223861694336,0.45662933588027954,-0.15926502645015717
1737750034504653600,8.524653564453125,0.4574778079986572,0.28643283247947693,-0.1348147988319397
1737750034514720800,8.534720703125,0.4317314326763153,0.09340451657772064,-0.1386241912841797
1737750034524788700,8.544788818359375,0.44929978251457214,-0.07056444883346558,-0.13219185173511505
1737750034534856700,8.554856689453125,0.46598020195961,-0.16496391594409943,-0.14143915474414825
1737750034544924700,8.564924560546874,0.46164804697036743,-0.1613263040781021,-0.166976198554039
1737750034554992600,8.57499267578125,0.4656313359737396,-0.10673630237579346,-0.14629648625850677
1737750034565059600,8.5850595703125,0.4623732268810272,-0.060141101479530334,-0.08630852401256561
1737750034575127800,8.5951279296875,0.4684356451034546,0.0036597158759832382,-0.006000102031975985
1737750034585195800,8.60519580078125,0.4980763792991638,0.08576923608779907,0.08507201820611954
1737750034595263700,8.615263671875,0.5473940968513489,0.15483298897743225,0.1650795042514801
1737750034605330700,8.62533056640625,0.592066764831543,0.17782965302467346,0.22183865308761597
1737750034615399000,8.63539892578125,0.6257925033569336,0.13745640218257904,0.2530876398086548
1737750034625467000,8.645466796875,0.6458554267883301,0.04435122013092041,0.2619093656539917
1737750034635534800,8.655534912109376,0.6340789198875427,-0.07959655672311783,0.2759508788585663
1737750034645601800,8.665601806640625,0.6152029633522034,-0.22203253209590912,0.32316261529922485
1737750034655669800,8.675669677734374,0.5946868062019348,-0.3450703024864197,0.4158959984779358
1737750034665738000,8.685738037109376,0.539607584476471,-0.402020663022995,0.5520613193511963
1737750034675805700,8.6958056640625,0.4496411979198456,-0.4153793454170227,0.6493926644325256
1737750034685873000,8.705872802734374,0.3760809600353241,-0.4360380172729492,0.7137487530708313
1737750034695940600,8.715940673828126,0.33740121126174927,-0.46561935544013977,0.7377235889434814
1737750034706008600,8.726008544921875,0.32347020506858826,-0.48978912830352783,0.737913966178894
1737750034716076800,8.736076904296874,0.3167944550514221,-0.4640941619873047,0.7050513625144958
1737750034726143700,8.746143798828125,0.37547001242637634,-0.4058828055858612,0.6947699785232544
1737750034736211700,8.756211669921875,0.48605966567993164,-0.3759978711605072,0.6531295776367188
1737750034746279700,8.76627978515625,0.5335280895233154,-0.29643166065216064,0.6001619696617126
1737750034756347600,8.77634765625,0.45891273021698,-0.088652104139328,0.6158320307731628
1737750034766416000,8.786415771484375,0.3175811469554901,0.15903891623020172,0.6673005223274231
1737750034776482800,8.79648291015625,0.17589619755744934,0.36197417974472046,0.7065441012382507
1737750034786550800,8.80655078125,0.08246318250894547,0.5285919308662415,0.736113965511322
1737750034796618800,8.81661865234375,0.06735347211360931,0.6781084537506104,0.7717033624649048
1737750034806687000,8.82668701171875,0.14979241788387299,0.763617753982544,0.7924898862838745
1737750034816754000,8.83675390625,0.2664247751235962,0.7736514806747437,0.781624972820282
1737750034826822000,8.84682177734375,0.3707495629787445,0.7082908749580383,0.7477956414222717
1737750034836889900,8.856889892578126,0.40596774220466614,0.6099480390548706,0.7277633547782898
1737750034846957600,8.86695751953125,0.3846576511859894,0.5166127681732178,0.7195349931716919
1737750034857024800,8.877024658203124,0.3579895794391632,0.47136005759239197,0.7152259945869446
1737750034867092700,8.8870927734375,0.362716406583786,0.46050795912742615,0.7221763134002686
1737750034877160700,8.89716064453125,0.36106523871421814,0.5201132297515869,0.7647200226783752
1737750034887228700,8.907228759765625,0.3315640985965729,0.5693987607955933,0.8126915693283081
1737750034897296600,8.917296630859376,0.3015870153903961,0.5800836086273193,0.837883710861206
1737750034907363600,8.927363525390625,0.28425487875938416,0.4936928153038025,0.8726488947868347
1737750034917431800,8.937431884765624,0.2894890606403351,0.5156583189964294,0.9094783067703247
1737750034927499800,8.947499755859376,0.29479727149009705,0.45716914534568787,0.9469249844551086
1737750034937567700,8.957567626953125,0.29478371143341064,0.3863237500190735,0.9921505451202393
1737750034947634700,8.967634765625,0.294167697429657,0.32557809352874756,1.0240397453308105
1737750034957703000,8.977702880859376,0.2919085621833801,0.2890123724937439,1.0242717266082764
1737750034967771000,8.98777099609375,0.28682830929756165,0.27428027987480164,1.012041449546814
1737750034977838800,8.9978388671875,0.2865702509880066,0.2628558576107025,0.9989027380943298
1737750034987905800,9.00790576171875,0.3011326789855957,0.23885785043239594,0.979685366153717
1737750034997973800,9.017973876953125,0.34829139709472656,0.23591479659080505,0.9579454064369202
1737750035008042000,9.0280419921875,0.4296261966228485,0.23613077402114868,0.9180278182029724
1737750035018109700,9.038109619140625,0.5270510315895081,0.25626641511917114,0.8505238890647888
1737750035028177700,9.048177734375,0.6090076565742493,0.2822050452232361,0.7774360775947571
1737750035038244600,9.05824462890625,0.6657428741455078,0.30975306034088135,0.7304616570472717
1737750035048312600,9.0683125,0.7065848112106323,0.3561820685863495,0.7008244395256042
1737750035058380800,9.078380859375,0.7261947393417358,0.41266852617263794,0.6961790919303894
1737750035068448800,9.08844873046875,0.7192401885986328,0.4509756863117218,0.7114070057868958
1737750035078515700,9.098515625,0.6805625557899475,0.5081425905227661,0.7372271418571472
1737750035088583700,9.108583740234375,0.646529495716095,0.5870925188064575,0.7637245655059814
1737750035098652000,9.11865185546875,0.666320264339447,0.6498578786849976,0.8103993535041809
1737750035108719900,9.128719970703125,0.7252938151359558,0.6825239658355713,0.860295832157135
1737750035118786800,9.138786865234374,0.7818785309791565,0.684253454208374,0.918125569820404
1737750035128854800,9.148854736328126,0.813233494758606,0.6272886991500854,0.962055504322052
1737750035138922800,9.1589228515625,0.8461486101150513,0.5163983702659607,0.9725448489189148
1737750035148991000,9.168990966796875,0.8855417966842651,0.41212019324302673,0.9350028038024902
1737750035159058000,9.179057861328126,0.9154938459396362,0.3358488380908966,0.8659526705741882
1737750035169126000,9.1891259765625,0.9532777070999146,0.2656433880329132,0.7872011065483093
1737750035179193900,9.19919384765625,1.0061113834381104,0.19262032210826874,0.7369107604026794
1737750035189261600,9.209261474609375,1.0678647756576538,0.15495842695236206,0.7018617391586304
1737750035199328800,9.219328857421875,1.1338528394699097,0.15338316559791565,0.6780645251274109
1737750035209396700,9.229396728515624,1.1960704326629639,0.175418421626091,0.6623361706733704
1737750035219464700,9.239464599609375,1.2519360780715942,0.20665544271469116,0.6126828193664551
1737750035229532700,9.24953271484375,1.2927210330963135,0.2620537281036377,0.5514341592788696
1737750035239600600,9.2596005859375,1.3050199747085571,0.33426347374916077,0.46372026205062866
1737750035249667800,9.269667724609375,1.311797022819519,0.4164254367351532,0.39084818959236145
1737750035259735800,9.27973583984375,1.3110616207122803,0.5284683704376221,0.31491878628730774
1737750035269803800,9.2898037109375,1.3056336641311646,0.6569661498069763,0.25072675943374634
1737750035279871700,9.299871826171875,1.282458782196045,0.7992758750915527,0.21879705786705017
1737750035289938700,9.309938720703125,1.23589026927948,0.946003258228302,0.1842486709356308
1737750035300007000,9.3200068359375,1.1858798265457153,1.074523687362671,0.1381554752588272
1737750035310075000,9.330074951171875,1.1308306455612183,1.1663825511932373,0.06268894672393799
1737750035320142800,9.340142822265625,1.0566805601119995,1.241814374923706,-0.05173509940505028
1737750035330209800,9.350209716796876,0.967738926410675,1.3336998224258423,-0.20437178015708923
1737750035340277800,9.36027783203125,0.867245614528656,1.4522632360458374,-0.3707341253757477
1737750035350345700,9.370345703125,0.765775740146637,1.5824849605560303,-0.5129868984222412
1737750035360413700,9.38041357421875,0.6839075088500977,1.6858872175216675,-0.6023969054222107
1737750035370481000,9.39048095703125,0.596468985080719,1.7380023002624512,-0.6428966522216797
1737750035380548600,9.400548583984374,0.5116332173347473,1.7131720781326294,-0.6527135968208313
1737750035390616600,9.410616455078125,0.46054762601852417,1.5912253856658936,-0.6604940295219421
1737750035400684800,9.420684814453125,0.40708306431770325,1.38001549243927,-0.6759281158447266
1737750035410752800,9.430752685546874,0.3187316358089447,1.0939581394195557,-0.6967889070510864
1737750035420819700,9.44081982421875,0.21191811561584473,0.770711362361908,-0.7115045189857483
1737750035430887700,9.4508876953125,0.11394334584474564,0.4415515661239624,-0.7268288731575012
1737750035440956000,9.460955810546874,0.032096415758132935,0.11607787013053894,-0.72370845079422
1737750035451024000,9.47102392578125,-0.03584881126880646,-0.1894250512123108,-0.7156829833984375
1737750035461090800,9.4810908203125,-0.09069661051034927,-0.46263501048088074,-0.6793407201766968
1737750035471158800,9.49115869140625,-0.13531814515590668,-0.7115876078605652,-0.6048883199691772
1737750035481227000,9.50122705078125,-0.1443779468536377,-0.9152722954750061,-0.5366812944412231
1737750035491295000,9.511294921875,-0.12457548081874847,-1.0641040802001953,-0.48215413093566895
1737750035501362000,9.52136181640625,-0.11020586639642715,-1.1467573642730713,-0.4220692217350006
1737750035511430000,9.531429931640625,-0.12082388997077942,-1.1846363544464111,-0.36026230454444885
1737750035521497600,9.54149755859375,-0.14676468074321747,-1.2084349393844604,-0.3077048361301422
1737750035531565800,9.55156591796875,-0.18065765500068665,-1.2264131307601929,-0.24945057928562164
1737750035541632800,9.5616328125,-0.21188348531723022,-1.1912140846252441,-0.22638680040836334
1737750035551700700,9.57170068359375,-0.2558099329471588,-1.1092708110809326,-0.254783034324646
1737750035561768700,9.581768798828126,-0.29455626010894775,-0.9918011426925659,-0.3521636426448822
1737750035571836700,9.591836669921875,-0.3232502341270447,-0.8267887234687805,-0.41480758786201477
1737750035581903600,9.601903564453124,-0.35245656967163086,-0.6554499864578247,-0.40574777126312256
1737750035591971800,9.611971923828126,-0.3739951550960541,-0.5559396743774414,-0.34776967763900757
1737750035602039800,9.622039794921875,-0.378854900598526,-0.5158330202102661,-0.2596757709980011
1737750035612107800,9.632107666015624,-0.3572028577327728,-0.49084216356277466,-0.20456458628177643
1737750035622175700,9.64217578125,-0.2925975024700165,-0.4758925139904022,-0.18530488014221191
1737750035632243000,9.652242919921875,-0.24545210599899292,-0.5113359689712524,-0.2104770690202713
1737750035642311000,9.662310791015624,-0.23782001435756683,-0.6631819605827332,-0.2611194849014282
1737750035652379000,9.67237890625,-0.2538919150829315,-0.8812850117683411,-0.3154700696468353
1737750035662446800,9.68244677734375,-0.27165842056274414,-1.0877082347869873,-0.3614349067211151
1737750035672513800,9.692513671875,-0.27621588110923767,-1.2554512023925781,-0.3561114966869354
1737750035682582000,9.70258203125,-0.2782156467437744,-1.3615036010742188,-0.2977195680141449
1737750035692649700,9.712649658203125,-0.2727103531360626,-1.4105781316757202,-0.19590425491333008
1737750035702717700,9.7227177734375,-0.26831719279289246,-1.3930671215057373,-0.10971584171056747
1737750035712784600,9.73278466796875,-0.287402480840683,-1.3187669515609741,-0.0694965198636055
1737750035722852600,9.7428525390625,-0.3489776849746704,-1.2168867588043213,-0.04596482962369919
1737750035732920800,9.7529208984375,-0.4405371844768524,-1.1129515171051025,-0.045047637075185776
1737750035742988800,9.76298876953125,-0.5192780494689941,-1.0439561605453491,-0.024352744221687317
1737750035753056800,9.773056884765625,-0.5549140572547913,-0.9810022711753845,-0.011653726920485497
1737750035763123700,9.783123779296876,-0.608203113079071,-0.9126426577568054,0.020549483597278595
1737750035773192000,9.79319189453125,-0.6765148043632507,-0.8844618797302246,0.07371602952480316
1737750035783260000,9.803260009765625,-0.731104850769043,-0.8859332799911499,0.091744564473629
1737750035793327900,9.813327880859376,-0.788943886756897,-0.8962647318840027,0.10701699554920197
1737750035803394800,9.823394775390625,-0.8515894412994385,-0.8741839528083801,0.1106298416852951
1737750035813462800,9.833462890625,-0.8891831636428833,-0.8257240056991577,0.10485237836837769
1737750035823531000,9.843531005859376,-0.9174866676330566,-0.7588768005371094,0.12029791623353958
1737750035833599000,9.853598876953125,-0.9339892268180847,-0.6711704134941101,0.12623196840286255
1737750035843666000,9.863666015625,-0.9528060555458069,-0.5813265442848206,0.14330895245075226
1737750035853734000,9.87373388671875,-0.986338198184967,-0.5164007544517517,0.189405620098114
1737750035863801600,9.883801513671875,-1.018831729888916,-0.4735225439071655,0.23508894443511963
1737750035873869800,9.893869873046874,-1.0269958972930908,-0.46192583441734314,0.26062652468681335
1737750035883936800,9.903936767578125,-1.0141661167144775,-0.4554985463619232,0.27241235971450806
1737750035894004700,9.914004638671875,-0.9803537726402283,-0.42826932668685913,0.27159956097602844
1737750035904072700,9.92407275390625,-0.9405525922775269,-0.39141491055488586,0.2533089518547058
1737750035914140700,9.934140625,-0.8849268555641174,-0.34180793166160583,0.22731970250606537
1737750035924209000,9.944208984375,-0.8300148844718933,-0.26865729689598083,0.20365992188453674
1737750035934275800,9.95427587890625,-0.7820582985877991,-0.1873006522655487,0.19729523360729218
1737750035944343800,9.96434375,-0.74972003698349,-0.1141023337841034,0.20622560381889343
1737750035954411800,9.974411865234375,-0.7213557958602905,-0.08160218596458435,0.2107527107000351
1737750035964480000,9.98447998046875,-0.6807920932769775,-0.08551783114671707,0.18275463581085205
1737750035974547000,9.994546875,-0.6081453561782837,-0.10051622241735458,0.14513029158115387
1737750035984615000,10.004614990234375,-0.5241985321044922,-0.10423106700181961,0.11688826978206635
1737750035994683000,10.014682861328126,-0.42793989181518555,-0.10531044006347656,0.1097848191857338
1737750036004750800,10.024750732421875,-0.3110566735267639,-0.10663243383169174,0.11693380773067474
1737750036014817800,10.03481787109375,-0.17801953852176666,-0.0805228054523468,0.14244715869426727
1737750036024886000,10.044885986328126,-0.07233358174562454,-0.0352511964738369,0.16779646277427673
1737750036034953700,10.05495361328125,0.012529107742011547,-0.012195147573947906,0.14126311242580414
1737750036045021700,10.065021728515624,0.08729761838912964,-0.0398281067609787,0.09099062532186508
1737750036055089700,10.075089599609376,0.15081746876239777,-0.08999327570199966,0.03424851596355438
1737750036065156600,10.085156494140625,0.19839803874492645,-0.1376446783542633,-0.010273942723870277
1737750036075224800,10.095224853515624,0.2394498735666275,-0.1715184897184372,-0.07231840491294861
1737750036085292800,10.105292724609376,0.2974228858947754,-0.1936219334602356,-0.12734410166740417
1737750036095360800,10.11536083984375,0.373290479183197,-0.19075636565685272,-0.1707933098077774
1737750036105427700,10.125427734375,0.437095582485199,-0.17307031154632568,-0.19337718188762665
1737750036115496000,10.135495849609375,0.49238839745521545,-0.13429628312587738,-0.2057531625032425
1737750036125564000,10.14556396484375,0.537586510181427,-0.11114223301410675,-0.2187773436307907
1737750036135632000,10.1556318359375,0.5693404078483582,-0.11004874110221863,-0.24192342162132263
1737750036145698800,10.16569873046875,0.6003816723823547,-0.10722579061985016,-0.2799765169620514
1737750036155766800,10.175766845703125,0.6257717609405518,-0.08788351714611053,-0.3193223476409912
1737750036165835000,10.1858349609375,0.6531075239181519,-0.05020245164632797,-0.3460836410522461
1737750036175902700,10.19590283203125,0.6925252079963684,-0.013623400591313839,-0.34631720185279846
1737750036185970700,10.205970703125,0.741259753704071,0.026565564796328545,-0.3378070592880249
1737750036196038000,10.216037841796876,0.7841073274612427,0.09995562583208084,-0.33430740237236023
1737750036206105600,10.226105712890625,0.8095383644104004,0.16393567621707916,-0.3431871831417084
1737750036216173800,10.236173828125,0.8215519189834595,0.21735575795173645,-0.35264432430267334
1737750036226241800,10.24624169921875,0.8255360126495361,0.2767794132232666,-0.3438892066478729
1737750036236308700,10.256308837890625,0.8069018721580505,0.31344181299209595,-0.33057206869125366
1737750036246376700,10.266376708984374,0.786247730255127,0.3045274019241333,-0.29800185561180115
1737750036256444700,10.276444580078126,0.7874754071235657,0.26429370045661926,-0.27278706431388855
1737750036266513000,10.286512939453125,0.7938063144683838,0.23314830660820007,-0.2608446478843689
1737750036276579800,10.296579833984374,0.8035481572151184,0.2387838214635849,-0.26296213269233704
1737750036286647800,10.306647705078126,0.8127506971359253,0.2572419047355652,-0.2680298388004303
1737750036296715800,10.3167158203125,0.8146522045135498,0.3042592406272888,-0.2705473303794861
1737750036306784000,10.326783935546874,0.7957597374916077,0.34639522433280945,-0.26368916034698486
1737750036316852000,10.33685205078125,0.7749335169792175,0.39850717782974243,-0.25798359513282776
1737750036326919000,10.3469189453125,0.7599769830703735,0.4828452169895172,-0.27286189794540405
1737750036336987000,10.35698681640625,0.7282664179801941,0.5582603216171265,-0.28076374530792236
1737750036347054600,10.3670546875,0.7071611285209656,0.6115832328796387,-0.2829805612564087
1737750036357122800,10.377122802734375,0.7048715949058533,0.6627358794212341,-0.27646008133888245
1737750036367189800,10.387189697265624,0.698153555393219,0.6969516277313232,-0.26554885506629944
1737750036377257700,10.3972578125,0.6930045485496521,0.6995223760604858,-0.247782364487648
1737750036387325700,10.40732568359375,0.676572859287262,0.7128959894180298,-0.21970678865909576
1737750036397393700,10.4173935546875,0.6494168639183044,0.7395480871200562,-0.18498769402503967
1737750036407460900,10.4274609375,0.6135987043380737,0.753001868724823,-0.1520363986492157
1737750036417528800,10.43752880859375,0.5746246576309204,0.771526575088501,-0.1182643249630928
1737750036427596300,10.44759619140625,0.5286108255386353,0.7564464211463928,-0.0992131382226944
1737750036437664500,10.45766455078125,0.48792946338653564,0.7059544920921326,-0.09933377802371979
1737750036447732500,10.467732421875,0.45769166946411133,0.646679699420929,-0.10919999331235886
1737750036457799400,10.47779931640625,0.4407086968421936,0.5900992155075073,-0.10095484554767609
1737750036467867400,10.487867431640625,0.4285641312599182,0.5437751412391663,-0.09631668031215668
1737750036477935400,10.497935302734374,0.42852020263671875,0.5309869050979614,-0.07583431154489517
1737750036488003600,10.508003662109376,0.42627567052841187,0.5514975190162659,-0.05130952596664429
1737750036498070500,10.518070556640625,0.42702004313468933,0.5865239500999451,-0.01924773119390011
1737750036508138500,10.528138427734374,0.4474318325519562,0.6034131646156311,0.028020715340971947
1737750036518206500,10.53820654296875,0.4743382930755615,0.6274303793907166,0.0643070861697197
1737750036528274200,10.548274169921875,0.4896698296070099,0.6726681590080261,0.10015402734279633
1737750036538341400,10.55834130859375,0.5016385912895203,0.714078426361084,0.11727602779865265
1737750036548409300,10.568409423828125,0.5269996523857117,0.7276996970176697,0.10815097391605377
1737750036558477300,10.578477294921875,0.5468018054962158,0.7494779825210571,0.08744622766971588
1737750036568545300,10.588545166015624,0.5758856534957886,0.761445164680481,0.048588041216135025
1737750036578613200,10.59861328125,0.5993260145187378,0.7722293734550476,-0.0017486315919086337
1737750036588680400,10.608680419921875,0.6083512306213379,0.8198027610778809,-0.061097174882888794
1737750036598748400,10.61874853515625,0.6081855893135071,0.8972551822662354,-0.11639372259378433
1737750036608816400,10.62881640625,0.6162115335464478,0.9585587382316589,-0.13988226652145386
1737750036618884400,10.63888427734375,0.6076388359069824,0.9536465406417847,-0.15006646513938904
1737750036628951300,10.648951416015626,0.577936589717865,0.9176214337348938,-0.16539855301380157
1737750036639019500,10.65901953125,0.5397378206253052,0.8964818120002747,-0.17970184981822968
1737750036649087500,10.66908740234375,0.5396419167518616,0.8709918856620789,-0.184066504240036
1737750036659155500,10.679155517578126,0.5836703777313232,0.8201375007629395,-0.18348993360996246
1737750036669222400,10.689222412109375,0.6457489132881165,0.8173992037773132,-0.19623050093650818
1737750036679290400,10.699290283203124,0.7042838931083679,0.8596587777137756,-0.22743076086044312
1737750036689358600,10.709358642578126,0.7450931072235107,0.9089645743370056,-0.26758989691734314
1737750036699426300,10.71942626953125,0.7511717677116394,0.931721031665802,-0.30106237530708313
1737750036709494300,10.729494384765625,0.7521432638168335,0.9361605048179626,-0.33752238750457764
1737750036719561200,10.739561279296876,0.7497051358222961,0.9339785575866699,-0.3578047454357147
1737750036729629200,10.749629150390625,0.7535057663917542,0.9148032665252686,-0.35412344336509705
1737750036739697400,10.759697509765624,0.7601236701011658,0.8927522897720337,-0.3432852029800415
1737750036749765400,10.769765380859376,0.7510913014411926,0.8840280771255493,-0.3233484923839569
1737750036759832300,10.779832275390625,0.7159967422485352,0.8323483467102051,-0.2985757887363434
1737750036769900300,10.789900390625,0.690537691116333,0.733053982257843,-0.29056498408317566
1737750036779968500,10.799968505859376,0.6752042770385742,0.6648421883583069,-0.2942494750022888
1737750036790036500,10.810036376953125,0.6698369383811951,0.6100795865058899,-0.29236873984336853
1737750036800103400,10.820103515625,0.6570798754692078,0.5488380789756775,-0.26711025834083557
1737750036810171400,10.83017138671875,0.6433896422386169,0.5273716449737549,-0.239172101020813
1737750036820239400,10.8402392578125,0.6275951862335205,0.5376536250114441,-0.21306459605693817
1737750036830307600,10.8503076171875,0.6041575074195862,0.570761501789093,-0.19860443472862244
1737750036840375300,10.860375244140625,0.5803680419921875,0.5907948613166809,-0.17808452248573303
1737750036850442500,10.8704423828125,0.5667814016342163,0.6017452478408813,-0.15749774873256683
1737750036860510500,10.880510498046876,0.5629094243049622,0.5772545337677002,-0.1436445116996765
1737750036870578200,10.890578125,0.5585516691207886,0.5576334595680237,-0.1503966897726059
1737750036880646400,10.900646484375,0.5610167384147644,0.5656746029853821,-0.16203071177005768
1737750036890713300,10.91071337890625,0.5647315382957458,0.5672644972801208,-0.16764812171459198
1737750036900781300,10.92078125,0.5717114210128784,0.5572635531425476,-0.1734175980091095
1737750036910849300,10.930849365234375,0.5790407061576843,0.5364964604377747,-0.1779835820198059
1737750036920917500,10.94091748046875,0.5986011028289795,0.4988265931606293,-0.17199945449829102
1737750036930984400,10.950984375,0.6265794634819031,0.41557908058166504,-0.16373620927333832
1737750036941052400,10.961052490234374,0.6486048698425293,0.3280756175518036,-0.16160701215267181
1737750036951120400,10.971120361328126,0.6606799364089966,0.22701530158519745,-0.14597797393798828
1737750036961188400,10.981188232421875,0.6489095687866211,0.09060952812433243,-0.12486284226179123
1737750036971256600,10.991256591796875,0.6087527871131897,-0.03646240383386612,-0.12346654385328293
1737750036981323500,11.001323486328126,0.545889675617218,-0.12401648610830307,-0.13822124898433685
1737750036991391500,11.0113916015625,0.4540862739086151,-0.16624489426612854,-0.15456773340702057
1737750037001459500,11.02145947265625,0.3317238688468933,-0.17418324947357178,-0.1861855834722519
1737750037011527400,11.03152734375,0.2182641625404358,-0.16772055625915527,-0.22833757102489471
1737750037021594400,11.041594482421875,0.12341221421957016,-0.14143969118595123,-0.2474960833787918
1737750037031662600,11.05166259765625,0.040757015347480774,-0.10724203288555145,-0.25893595814704895
1737750037041730300,11.061730224609375,-0.026090189814567566,-0.09079967439174652,-0.27978745102882385
1737750037051798300,11.07179833984375,-0.09257441014051437,-0.1006467193365097,-0.3171244263648987
1737750037061865200,11.081865234375,-0.1620086133480072,-0.12612544000148773,-0.354462206363678
1737750037071933400,11.091933349609375,-0.2361488789319992,-0.1602189689874649,-0.3956376016139984
1737750037082001400,11.10200146484375,-0.29918989539146423,-0.17741233110427856,-0.4730527698993683
1737750037092069400,11.1120693359375,-0.3589576184749603,-0.19527921080589294,-0.5550658702850342
1737750037102137300,11.122137451171875,-0.4302659034729004,-0.2941077947616577,-0.6109965443611145
1737750037112204300,11.132204345703125,-0.49862152338027954,-0.43449127674102783,-0.668645441532135
1737750037122272500,11.1422724609375,-0.5558043718338013,-0.569412887096405,-0.6993346214294434
1737750037132340500,11.152340576171875,-0.5955232977867126,-0.7664633393287659,-0.7265177965164185
1737750037142408400,11.162408447265625,-0.614929735660553,-1.0214530229568481,-0.761153519153595
1737750037152475400,11.172475341796876,-0.6232678294181824,-1.2894093990325928,-0.7885478734970093
1737750037162543400,11.18254345703125,-0.6255522966384888,-1.526087999343872,-0.7937620878219604
1737750037172611600,11.192611572265625,-0.6348861455917358,-1.6698278188705444,-0.7670273780822754
1737750037182679300,11.20267919921875,-0.6491734981536865,-1.7804120779037476,-0.7241625189781189
1737750037192746500,11.21274658203125,-0.6643718481063843,-1.8765575885772705,-0.6680877804756165
1737750037202814500,11.222814453125,-0.6556692123413086,-1.904225468635559,-0.6123453974723816
1737750037212882200,11.232882080078125,-0.6059817671775818,-1.8181496858596802,-0.5439844727516174
1737750037222950400,11.242950439453125,-0.5387731790542603,-1.6381192207336426,-0.4817027151584625
1737750037233018400,11.253018310546874,-0.4735361337661743,-1.376145839691162,-0.4558088183403015
1737750037243085300,11.263085205078125,-0.42143911123275757,-1.0556187629699707,-0.44164133071899414
1737750037253153300,11.2731533203125,-0.3942280113697052,-0.7268086075782776,-0.42763203382492065
1737750037263221500,11.283221435546874,-0.4053983688354492,-0.39065590500831604,-0.4117441475391388
1737750037273289500,11.29328955078125,-0.4427308142185211,-0.09243086725473404,-0.399104505777359
1737750037283356400,11.3033564453125,-0.4832417666912079,0.15053704380989075,-0.39568260312080383
1737750037293424400,11.31342431640625,-0.5050258636474609,0.3234938979148865,-0.3922679126262665
1737750037303492400,11.323492431640625,-0.5158417820930481,0.39885205030441284,-0.39279574155807495
1737750037313560600,11.333560546875,-0.5116912722587585,0.3921017348766327,-0.4089403748512268
1737750037323627500,11.34362744140625,-0.4940328896045685,0.36307647824287415,-0.42828822135925293
1737750037333695500,11.353695556640625,-0.4716940224170685,0.3407655656337738,-0.4511224329471588
1737750037343763500,11.363763427734375,-0.4577779471874237,0.3277866542339325,-0.48743224143981934
1737750037353831200,11.3738310546875,-0.44085168838500977,0.36073076725006104,-0.529605507850647
1737750037363899400,11.3838994140625,-0.42212992906570435,0.4099805951118469,-0.550373375415802
1737750037373966300,11.39396630859375,-0.39986032247543335,0.4612935781478882,-0.5236586928367615
1737750037384034300,11.404034423828126,-0.37215492129325867,0.4974915385246277,-0.46972915530204773
1737750037394102300,11.414102294921875,-0.3359101116657257,0.4896959364414215,-0.39542561769485474
1737750037404170500,11.42417041015625,-0.2955584228038788,0.42371106147766113,-0.3202853202819824
1737750037414237400,11.434237548828126,-0.25866830348968506,0.3396909832954407,-0.27297160029411316
1737750037424305400,11.444305419921875,-0.20823070406913757,0.25644803047180176,-0.2438291758298874
1737750037434374400,11.45437451171875,-0.15267662703990936,0.19013984501361847,-0.24419642984867096
1737750037444442400,11.4644423828125,-0.11169563978910446,0.16387149691581726,-0.26429396867752075
1737750037454509300,11.47450927734375,-0.09029553830623627,0.18293440341949463,-0.27778342366218567
1737750037464577300,11.484577392578124,-0.08220059424638748,0.20075920224189758,-0.2760252058506012
1737750037474645500,11.4946455078125,-0.08257130533456802,0.1790725439786911,-0.25048333406448364
1737750037484713200,11.504713134765625,-0.09252461045980453,0.10121317207813263,-0.2002047300338745
1737750037494781200,11.51478125,-0.10730621963739395,-0.00011531487689353526,-0.10914113372564316
1737750037504848100,11.52484814453125,-0.11324746161699295,-0.09186840057373047,0.00007723167072981596
1737750037514916000,11.534916015625,-0.10009144991636276,-0.12951724231243134,0.06829676777124405
1737750037524984300,11.544984375,-0.06754016131162643,-0.028382638469338417,0.037578798830509186
1737750037535052300,11.55505224609375,-0.03747919946908951,0.16949023306369781,-0.08139605820178986
1737750037545119200,11.565119140625,-0.036678653210401535,0.3464120030403137,-0.22169430553913116
1737750037555187200,11.575187255859374,-0.06136748567223549,0.4521504342556,-0.3273882567882538
1737750037565255200,11.585255126953125,-0.062319565564394,0.49349308013916016,-0.38060513138771057
1737750037575323400,11.595323486328125,-0.03199175372719765,0.452936053276062,-0.3907834589481354
1737750037585390300,11.605390380859374,0.0184615645557642,0.34442874789237976,-0.37374430894851685
1737750037595458300,11.615458251953125,0.06514278054237366,0.19345521926879883,-0.3468330502510071
1737750037605526300,11.6255263671875,0.08606191724538803,0.06549964845180511,-0.3311297297477722
1737750037615594500,11.635594482421874,0.07590381801128387,-0.000517718493938446,-0.3012237548828125
1737750037625661400,11.645661376953125,0.07257380336523056,-0.015851667150855064,-0.2768542468547821
1737750037635729400,11.6557294921875,0.09652706980705261,0.01224468182772398,-0.2440560758113861
1737750037645797400,11.66579736328125,0.1301492154598236,0.07730384171009064,-0.22354653477668762
1737750037655865000,11.675864990234375,0.15338076651096344,0.1374334990978241,-0.2051534205675125
1737750037665933300,11.685933349609375,0.16850486397743225,0.16126158833503723,-0.20337815582752228
1737750037676000300,11.696000244140626,0.16683745384216309,0.15039829909801483,-0.21233142912387848
1737750037686068200,11.706068115234375,0.14997804164886475,0.13337376713752747,-0.23291952908039093
1737750037696136200,11.71613623046875,0.14806322753429413,0.13432984054088593,-0.2436280995607376
1737750037706204200,11.7262041015625,0.14050598442554474,0.10351227968931198,-0.2552906274795532
1737750037716271000,11.73627099609375,0.13507765531539917,0.0699244886636734,-0.24454130232334137
1737750037726339300,11.74633935546875,0.14587198197841644,0.007537011988461018,-0.21877655386924744
1737750037736407300,11.7564072265625,0.1641596406698227,-0.049073003232479095,-0.18897178769111633
1737750037746475300,11.766475341796875,0.1867443174123764,-0.08586031198501587,-0.17288868129253387
1737750037756542200,11.776542236328124,0.20893697440624237,-0.10498899966478348,-0.1366494596004486
1737750037766610400,11.7866103515625,0.223554790019989,-0.09687594324350357,-0.11468583345413208
1737750037776678400,11.796678466796875,0.22734607756137848,-0.07278818637132645,-0.1122511774301529
1737750037786746400,11.806746337890624,0.22684672474861145,-0.04102200269699097,-0.10892675071954727
1737750037796813300,11.816813232421875,0.21617624163627625,-0.001091896090656519,-0.11490554362535477
1737750037806881300,11.82688134765625,0.20110221207141876,0.053592123091220856,-0.13676902651786804
1737750037816949200,11.83694921875,0.16236494481563568,0.10316633433103561,-0.1717160940170288
1737750037827017200,11.847017333984375,0.13863590359687805,0.16621001064777374,-0.11808296293020248
1737750037837084400,11.85708447265625,0.11539983004331589,0.25293904542922974,-0.06770581007003784
1737750037847152000,11.867152099609376,0.07099081575870514,0.30390608310699463,-0.07134448736906052
1737750037857220000,11.87722021484375,0.050446394830942154,0.3011670410633087,-0.06824430078268051
1737750037867288300,11.887288330078125,0.07923543453216553,0.2861494719982147,-0.07863329350948334
1737750037877356300,11.897356201171876,0.11430446803569794,0.2353249043226242,-0.10177083313465118
1737750037887423200,11.90742333984375,0.11233959347009659,0.17244207859039307,-0.12145612388849258
1737750037897491200,11.9174912109375,0.07376663386821747,0.10383611917495728,-0.16115453839302063
1737750037907559200,11.92755908203125,0.03244156390428543,0.04117433354258537,-0.206502303481102
1737750037917627400,11.93762744140625,0.0013523531379178166,-0.010430004447698593,-0.24724388122558594
1737750037927694300,11.9476943359375,-0.0002479403046891093,-0.018630942329764366,-0.28525757789611816
1737750037937762300,11.95776220703125,0.01128141675144434,-0.002543851500377059,-0.3115847706794739
1737750037947830300,11.967830322265625,0.021138042211532593,0.017970744520425797,-0.315266877412796
1737750037957898500,11.9778984375,0.031329426914453506,0.03814525529742241,-0.30817940831184387
1737750037967965400,11.98796533203125,0.02762443758547306,0.053641658276319504,-0.2914204001426697
1737750037978033400,11.998033447265625,0.03140399605035782,0.08098673075437546,-0.27510958909988403
1737750037988101000,12.00810107421875,0.04741518571972847,0.09002017229795456,-0.23827515542507172
1737750037998169000,12.018169189453126,0.05221686512231827,0.09701176732778549,-0.20798754692077637
1737750038008236300,12.028236328125,0.058330949395895004,0.1159665510058403,-0.18458209931850433
1737750038018304300,12.03830419921875,0.058033742010593414,0.13253913819789886,-0.1560351401567459
1737750038028372200,12.048372314453125,0.050934821367263794,0.16294018924236298,-0.1587236076593399
1737750038038440200,12.058440185546875,0.0440518781542778,0.1725424826145172,-0.164675772190094
1737750038048507100,12.068507080078126,0.029294505715370178,0.13695359230041504,-0.16413860023021698
1737750038058575000,12.0785751953125,0.03516251593828201,0.11032704263925552,-0.17494279146194458
1737750038068643300,12.088643310546875,0.06484024971723557,0.0864400863647461,-0.19816900789737701
1737750038078711300,12.098711181640626,0.10913128405809402,0.05529334768652916,-0.20509269833564758
1737750038088778200,12.1087783203125,0.14403440058231354,0.02286590076982975,-0.20344899594783783
1737750038098846200,12.11884619140625,0.16041071712970734,-0.025318939238786697,-0.1876886785030365
1737750038108914400,12.12891455078125,0.16551120579242706,-0.05853095278143883,-0.16628937423229218
1737750038118982400,12.138982421875,0.1657508909702301,-0.08521129935979843,-0.1469431072473526
1737750038129049300,12.14904931640625,0.15354402363300323,-0.09572679549455643,-0.1381315141916275
1737750038139117300,12.159117431640626,0.141418918967247,-0.09032723307609558,-0.13991636037826538
1737750038149185300,12.169185302734375,0.12846823036670685,-0.1053868755698204,-0.13360492885112762
1737750038159253200,12.179253173828124,0.11885687708854675,-0.1334342211484909,-0.14687706530094147
1737750038169320400,12.189320556640626,0.1125774085521698,-0.1674470454454422,-0.1743968427181244
1737750038179388200,12.19938818359375,0.10020916163921356,-0.20948398113250732,-0.20354540646076202
1737750038189456100,12.2094560546875,0.07080093771219254,-0.24625743925571442,-0.2356274425983429
1737750038199524000,12.219524169921876,0.036975327879190445,-0.29639652371406555,-0.2545470595359802
1737750038209591000,12.229591064453125,-0.0023214775137603283,-0.37173575162887573,-0.2657967805862427
1737750038219659300,12.2396591796875,-0.03640887513756752,-0.45251208543777466,-0.2574158310890198
1737750038229727200,12.249727294921875,-0.07344438880681992,-0.5178913474082947,-0.23886796832084656
1737750038239795200,12.259795166015625,-0.1125185564160347,-0.5220386981964111,-0.22887712717056274
1737750038249863400,12.269863525390624,-0.15152214467525482,-0.4505176246166229,-0.2072107046842575
1737750038259930400,12.279930419921875,-0.18694591522216797,-0.328268438577652,-0.1880575269460678
1737750038269998300,12.289998291015625,-0.22732903063297272,-0.21107415854930878,-0.18019826710224152
1737750038280066300,12.30006640625,-0.25792208313941956,-0.07087976485490799,-0.18257886171340942
1737750038290134300,12.31013427734375,-0.2669438123703003,0.07869108021259308,-0.15796300768852234
1737750038300201200,12.320201171875,-0.25655269622802734,0.22602088749408722,-0.12608975172042847
1737750038310269400,12.33026953125,-0.2323986142873764,0.3441872000694275,-0.09506846219301224
1737750038320337400,12.34033740234375,-0.2294457107782364,0.40250882506370544,-0.06209160014986992
1737750038330405000,12.350405029296875,-0.256280779838562,0.4223688244819641,-0.05156439170241356
1737750038340472300,12.360472412109376,-0.2846362590789795,0.4052087366580963,-0.04378849267959595
1737750038350540300,12.370540283203125,-0.29727455973625183,0.35191142559051514,-0.02726304531097412
1737750038360608300,12.380608154296874,-0.29142704606056213,0.2701888680458069,-0.011507252231240273
1737750038370676200,12.39067626953125,-0.27425846457481384,0.14059919118881226,-0.0018570221727713943
1737750038380743200,12.4007431640625,-0.25090545415878296,0.036681849509477615,-0.022645125165581703
1737750038390811100,12.41081103515625,-0.22413988411426544,-0.01703491061925888,-0.03846883028745651
1737750038400879400,12.42087939453125,-0.20058023929595947,-0.04067365825176239,-0.023085078224539757
1737750038410947300,12.430947265625,-0.1528947353363037,-0.04926661401987076,0.021013671532273293
1737750038421014300,12.44101416015625,-0.08014197647571564,-0.0201587975025177,0.11479183286428452
1737750038431081200,12.451081298828125,0.03110039420425892,0.028728583827614784,0.23304124176502228
1737750038441149200,12.461149169921875,0.16540972888469696,0.0935288816690445,0.3627680838108063
1737750038451217200,12.471217041015626,0.26632437109947205,0.24096734821796417,0.46899598836898804
1737750038461284000,12.4812841796875,0.3220371603965759,0.444118857383728,0.5169286131858826
1737750038471352300,12.491352294921874,0.3255900740623474,0.6634616255760193,0.5408206582069397
1737750038481420300,12.501420166015626,0.3181374967098236,0.8623062372207642,0.5552182197570801
1737750038491488300,12.51148828125,0.3275371193885803,0.9621431231498718,0.5635256767272949
1737750038501555200,12.52155517578125,0.34338265657424927,0.9254649877548218,0.575847864151001
1737750038511623400,12.53162353515625,0.3433786630630493,0.7573904991149902,0.5891634225845337
1737750038521691400,12.54169140625,0.3260044753551483,0.4771612286567688,0.5891128182411194
1737750038531759400,12.55175927734375,0.29537704586982727,0.13490189611911774,0.5663784742355347
1737750038541826300,12.561826416015625,0.2643512189388275,-0.19435563683509827,0.49008023738861084
