time,seconds_elapsed,z,y,x
1737749703945453300,0.139453369140625,0.016632080078125,-0.7243194580078125,-0.68603515625
1737749703955520500,0.1495205078125,0.015380859375,-0.7292633056640625,-0.6877899169921875
1737749703965587500,0.15958740234375,0.0081329345703125,-0.7296295166015625,-0.6785125732421875
1737749703975654400,0.169654296875,-0.0043792724609375,-0.7347412109375,-0.6683197021484375
1737749703985722400,0.179722412109375,-0.0108184814453125,-0.741058349609375,-0.663482666015625
1737749703995789300,0.189789306640625,-0.0198516845703125,-0.73785400390625,-0.670074462890625
1737749704005856500,0.1998564453125,-0.018829345703125,-0.726470947265625,-0.673858642578125
1737749704015924500,0.209924560546875,-0.00653076171875,-0.7218017578125,-0.6779022216796875
1737749704025991400,0.219991455078125,0.00506591796875,-0.729278564453125,-0.68951416015625
1737749704036058400,0.230058349609375,0.009185791015625,-0.733551025390625,-0.6926422119140625
1737749704046125300,0.240125244140625,0.0117950439453125,-0.7359619140625,-0.6922760009765625
1737749704056193300,0.250193359375,0.0072784423828125,-0.7337188720703125,-0.6918182373046875
1737749704066260200,0.26026025390625,0.0016937255859375,-0.7295074462890625,-0.6945648193359375
1737749704076327400,0.270327392578125,0.0043182373046875,-0.7238922119140625,-0.6864166259765625
1737749704086395400,0.2803955078125,-0.0036773681640625,-0.7219390869140625,-0.680908203125
1737749704096462600,0.290462646484375,-0.00811767578125,-0.7275238037109375,-0.6829833984375
1737749704106529500,0.300529541015625,-0.0013885498046875,-0.726409912109375,-0.6776123046875
1737749704116596500,0.310596435546875,0.0021514892578125,-0.726165771484375,-0.6792755126953125
1737749704126664400,0.32066455078125,0.0063629150390625,-0.7294769287109375,-0.6839447021484375
1737749704136731400,0.3307314453125,0.005523681640625,-0.727813720703125,-0.67828369140625
1737749704146798300,0.34079833984375,-0.0053253173828125,-0.72833251953125,-0.6670989990234375
1737749704156866300,0.3508662109375,-0.0163726806640625,-0.7338714599609375,-0.65789794921875
1737749704166933200,0.360933349609375,-0.0121917724609375,-0.7353668212890625,-0.6558380126953125
1737749704177000400,0.37100048828125,-0.0034637451171875,-0.7271270751953125,-0.6626129150390625
1737749704187067400,0.3810673828125,-0.0042724609375,-0.7251129150390625,-0.6739044189453125
1737749704197135400,0.39113525390625,-0.011749267578125,-0.7257843017578125,-0.678375244140625
1737749704207202600,0.40120263671875,-0.014862060546875,-0.7218780517578125,-0.67828369140625
1737749704217269500,0.41126953125,-0.00927734375,-0.72100830078125,-0.68792724609375
1737749704227337700,0.421337646484375,0.00439453125,-0.720550537109375,-0.6981658935546875
1737749704237405000,0.431405029296875,0.01849365234375,-0.7197265625,-0.70587158203125
1737749704247471900,0.441471923828125,0.0272216796875,-0.7230224609375,-0.707489013671875
1737749704257538800,0.451538818359375,0.0254364013671875,-0.7303466796875,-0.705963134765625
1737749704267606800,0.461606689453125,0.0263214111328125,-0.7332000732421875,-0.7026214599609375
1737749704277673700,0.471673828125,0.0169677734375,-0.734344482421875,-0.691802978515625
1737749704287740700,0.48174072265625,0.01092529296875,-0.7406768798828125,-0.6883392333984375
1737749704297809000,0.491808837890625,0.0129547119140625,-0.7418212890625,-0.681243896484375
1737749704307875800,0.501875732421875,0.0146331787109375,-0.7397308349609375,-0.6807861328125
1737749704317942800,0.51194287109375,0.0147857666015625,-0.73626708984375,-0.6847381591796875
1737749704328009700,0.522009765625,0.0174102783203125,-0.732177734375,-0.6827850341796875
1737749704338077700,0.53207763671875,0.0267181396484375,-0.7269287109375,-0.6796722412109375
1737749704348145000,0.542144775390625,0.023406982421875,-0.73028564453125,-0.6797637939453125
1737749704358211800,0.5522119140625,0.013946533203125,-0.73675537109375,-0.6815032958984375
1737749704368279800,0.56227978515625,0.0102691650390625,-0.7410736083984375,-0.68109130859375
1737749704378347000,0.572346923828125,0.023773193359375,-0.7422943115234375,-0.6853179931640625
1737749704388414000,0.5824140625,0.02825927734375,-0.737762451171875,-0.6900177001953125
1737749704398481000,0.59248095703125,0.026580810546875,-0.734649658203125,-0.6911773681640625
1737749704408548900,0.602548828125,0.0214996337890625,-0.7376861572265625,-0.689910888671875
1737749704418615800,0.61261572265625,0.0185546875,-0.7362518310546875,-0.6834564208984375
1737749704428682800,0.622682861328125,0.0105438232421875,-0.7335968017578125,-0.6809234619140625
1737749704438750700,0.632750732421875,0.0105133056640625,-0.7274322509765625,-0.6816253662109375
1737749704448817700,0.642817626953125,0.0079803466796875,-0.72760009765625,-0.6803741455078125
1737749704458884600,0.652884521484375,0.011199951171875,-0.731597900390625,-0.6811370849609375
1737749704468952000,0.6629521484375,0.01409912109375,-0.7327880859375,-0.675872802734375
1737749704479019800,0.673019775390625,0.01458740234375,-0.731689453125,-0.6695709228515625
1737749704489087000,0.6830869140625,0.0121002197265625,-0.7306976318359375,-0.670196533203125
1737749704499154000,0.69315380859375,0.0120697021484375,-0.7332916259765625,-0.6765899658203125
1737749704509222000,0.703221923828125,0.0132904052734375,-0.7378692626953125,-0.68157958984375
1737749704519288800,0.713288818359375,0.0172271728515625,-0.7342987060546875,-0.6836090087890625
1737749704529355800,0.723355712890625,0.0153045654296875,-0.7274322509765625,-0.679718017578125
1737749704539422700,0.733422607421875,0.0099639892578125,-0.7361602783203125,-0.6815032958984375
1737749704549491000,0.743490966796875,0.012298583984375,-0.743743896484375,-0.680389404296875
1737749704559558000,0.753557861328125,0.025726318359375,-0.73931884765625,-0.6732940673828125
1737749704569624800,0.763624755859375,0.0238494873046875,-0.7343597412109375,-0.6767578125
1737749704579692800,0.77369287109375,0.0107269287109375,-0.735992431640625,-0.6808319091796875
1737749704589759700,0.783759765625,0.00146484375,-0.7336273193359375,-0.6752166748046875
1737749704599826700,0.79382666015625,-0.00146484375,-0.7269439697265625,-0.67156982421875
1737749704609894700,0.803894775390625,0.0008544921875,-0.7191009521484375,-0.674285888671875
1737749704619961900,0.8139619140625,0.0049285888671875,-0.7168426513671875,-0.6826019287109375
1737749704630028800,0.82402880859375,0.0058441162109375,-0.7215576171875,-0.6883697509765625
1737749704640095700,0.834095703125,0.01715087890625,-0.72308349609375,-0.689483642578125
1737749704650164000,0.8441640625,0.0345001220703125,-0.7224273681640625,-0.692535400390625
1737749704660231000,0.85423095703125,0.03765869140625,-0.7256927490234375,-0.6986083984375
1737749704670297900,0.8642978515625,0.0178375244140625,-0.7237396240234375,-0.698028564453125
1737749704680365800,0.87436572265625,-0.002197265625,-0.7194671630859375,-0.68145751953125
1737749704690432800,0.884432861328125,-0.0055999755859375,-0.71856689453125,-0.6638641357421875
1737749704700499700,0.894499755859375,-0.00506591796875,-0.7226104736328125,-0.6628570556640625
1737749704710566700,0.904566650390625,-0.0039520263671875,-0.728271484375,-0.6740875244140625
1737749704720635000,0.914634765625,0.006591796875,-0.7242889404296875,-0.68206787109375
1737749704730701800,0.924701904296875,0.027008056640625,-0.718109130859375,-0.6895599365234375
1737749704740769000,0.93476904296875,0.035369873046875,-0.712738037109375,-0.7006683349609375
1737749704750836700,0.944836669921875,0.0178375244140625,-0.7153778076171875,-0.7049407958984375
1737749704760904000,0.954904052734375,0.0027618408203125,-0.7232208251953125,-0.695526123046875
1737749704770971000,0.964970947265625,-0.0049896240234375,-0.731903076171875,-0.6881561279296875
1737749704781037800,0.975037841796875,-0.002349853515625,-0.7388916015625,-0.6845855712890625
1737749704791105800,0.985105712890625,-0.0023651123046875,-0.742584228515625,-0.682586669921875
1737749704801172700,0.9951728515625,-0.005859375,-0.742095947265625,-0.6833038330078125
1737749704811239700,1.00523974609375,0.004608154296875,-0.734466552734375,-0.679168701171875
1737749704821308000,1.015307861328125,0.0087432861328125,-0.726654052734375,-0.680389404296875
1737749704831374800,1.025374755859375,0.0126495361328125,-0.7191925048828125,-0.6847991943359375
1737749704841441800,1.03544189453125,0.00823974609375,-0.70916748046875,-0.6825408935546875
1737749704851508700,1.0455087890625,-0.001739501953125,-0.7089996337890625,-0.6793975830078125
1737749704861576700,1.05557666015625,-0.007781982421875,-0.717041015625,-0.677825927734375
1737749704871644000,1.065643798828125,-0.0030670166015625,-0.7213897705078125,-0.669403076171875
1737749704881710800,1.0757109375,-0.005279541015625,-0.7280731201171875,-0.662994384765625
1737749704891778800,1.08577880859375,-0.015869140625,-0.733734130859375,-0.659515380859375
1737749704901846000,1.095845947265625,-0.0083770751953125,-0.7301788330078125,-0.65264892578125
1737749704911913000,1.105912841796875,0.0015106201171875,-0.72271728515625,-0.65765380859375
1737749704921980000,1.11597998046875,0.005157470703125,-0.713592529296875,-0.663238525390625
1737749704932048000,1.1260478515625,0.0098876953125,-0.7158203125,-0.6727752685546875
1737749704942114800,1.13611474609375,0.011932373046875,-0.7237548828125,-0.6781158447265625
1737749704952181800,1.146181640625,0.0078125,-0.730987548828125,-0.6769256591796875
1737749704962249700,1.156249755859375,0.013397216796875,-0.7339935302734375,-0.6757659912109375
1737749704972316700,1.166316650390625,0.01959228515625,-0.7326202392578125,-0.6760711669921875
1737749704982383600,1.176383544921875,0.0083465576171875,-0.73095703125,-0.6763458251953125
1737749704992450800,1.186450927734375,0.002288818359375,-0.73297119140625,-0.673919677734375
1737749705002518800,1.196518798828125,0.0069122314453125,-0.73773193359375,-0.677703857421875
1737749705012586000,1.2065859375,0.018524169921875,-0.7355499267578125,-0.6850433349609375
1737749705022653000,1.21665283203125,0.0182952880859375,-0.731201171875,-0.685455322265625
1737749705032721000,1.226720947265625,0.016387939453125,-0.7338714599609375,-0.6799163818359375
1737749705042787800,1.236787841796875,0.0181732177734375,-0.7381591796875,-0.6745147705078125
1737749705052854800,1.246854736328125,0.019744873046875,-0.7402801513671875,-0.6735076904296875
1737749705062921700,1.256921630859375,0.0178680419921875,-0.7391815185546875,-0.6730499267578125
1737749705072990000,1.266989990234375,0.0183258056640625,-0.736175537109375,-0.67205810546875
1737749705083057000,1.277056884765625,0.0244598388671875,-0.7343292236328125,-0.6681976318359375
1737749705093123800,1.287123779296875,0.0302734375,-0.734100341796875,-0.6653594970703125
1737749705103191800,1.29719189453125,0.0347900390625,-0.738525390625,-0.66912841796875
1737749705113258800,1.3072587890625,0.0453033447265625,-0.7488861083984375,-0.6669921875
1737749705123326000,1.317325927734375,0.0517120361328125,-0.7510986328125,-0.655517578125
1737749705133393000,1.327392822265625,0.0423431396484375,-0.745819091796875,-0.6529998779296875
1737749705143460900,1.3374609375,0.04296875,-0.7433319091796875,-0.66412353515625
1737749705153527800,1.34752783203125,0.0479278564453125,-0.7469024658203125,-0.7057647705078125
1737749705163594800,1.3575947265625,0.0444793701171875,-0.7341156005859375,-0.6887359619140625
1737749705173663000,1.3676630859375,0.0488128662109375,-0.7335205078125,-0.6732330322265625
1737749705183730000,1.37772998046875,0.05438232421875,-0.748138427734375,-0.6870269775390625
1737749705193796900,1.387796875,0.0582427978515625,-0.7524261474609375,-0.637359619140625
1737749705203863800,1.39786376953125,0.0379486083984375,-0.76055908203125,-0.6043243408203125
1737749705213931800,1.407931884765625,0.0312042236328125,-0.767791748046875,-0.607879638671875
1737749705223998200,1.417998291015625,0.037261962890625,-0.7617340087890625,-0.6249237060546875
1737749705234065400,1.4280654296875,0.0407867431640625,-0.7540130615234375,-0.64190673828125
1737749705244133400,1.43813330078125,0.0401611328125,-0.7447052001953125,-0.6526641845703125
1737749705254200600,1.44820068359375,0.039642333984375,-0.7373046875,-0.662078857421875
1737749705264267500,1.458267578125,0.0599212646484375,-0.7273406982421875,-0.672271728515625
1737749705274334500,1.46833447265625,0.0743408203125,-0.71148681640625,-0.685333251953125
1737749705284402400,1.47840234375,0.075714111328125,-0.70587158203125,-0.6934356689453125
1737749705294469400,1.488469482421875,0.0741729736328125,-0.7129364013671875,-0.6888885498046875
1737749705304536300,1.498536376953125,0.056671142578125,-0.724273681640625,-0.673980712890625
1737749705314604500,1.5086044921875,0.04302978515625,-0.729583740234375,-0.6617279052734375
1737749705324671500,1.51867138671875,0.0478515625,-0.7275848388671875,-0.6623992919921875
1737749705334738400,1.528738525390625,0.055694580078125,-0.72320556640625,-0.6649322509765625
1737749705344806400,1.538806396484375,0.058197021484375,-0.725250244140625,-0.6723785400390625
1737749705354873300,1.548873291015625,0.06561279296875,-0.7274169921875,-0.675537109375
1737749705364940300,1.558940185546875,0.0607452392578125,-0.72357177734375,-0.6696624755859375
1737749705375007500,1.569007568359375,0.04119873046875,-0.7164154052734375,-0.657989501953125
1737749705385075500,1.579075439453125,0.0209808349609375,-0.708404541015625,-0.658721923828125
1737749705395142400,1.589142333984375,0.0228118896484375,-0.70098876953125,-0.662750244140625
1737749705405209300,1.599209228515625,0.0214385986328125,-0.6925506591796875,-0.66058349609375
1737749705415277600,1.609277587890625,0.0182647705078125,-0.6898651123046875,-0.653594970703125
1737749705425344500,1.619344482421875,0.0119476318359375,-0.689910888671875,-0.6377410888671875
1737749705435411500,1.629411376953125,0.0019683837890625,-0.692779541015625,-0.6130828857421875
1737749705445478400,1.639478515625,-0.0150909423828125,-0.6992950439453125,-0.5879058837890625
1737749705455546400,1.64954638671875,-0.035003662109375,-0.6992950439453125,-0.5598907470703125
1737749705465613300,1.65961328125,-0.0560455322265625,-0.689117431640625,-0.5347442626953125
1737749705475680300,1.66968017578125,-0.0832366943359375,-0.672454833984375,-0.5079498291015625
1737749705485748200,1.679748291015625,-0.091217041015625,-0.649383544921875,-0.47210693359375
1737749705495815400,1.6898154296875,-0.0938720703125,-0.6263580322265625,-0.43017578125
1737749705505882600,1.699882568359375,-0.08795166015625,-0.608612060546875,-0.3805084228515625
1737749705515949600,1.709949462890625,-0.070648193359375,-0.591400146484375,-0.3331298828125
1737749705526017500,1.720017578125,-0.0288238525390625,-0.578216552734375,-0.3090667724609375
1737749705536084500,1.73008447265625,0.046539306640625,-0.573333740234375,-0.3156280517578125
1737749705546151400,1.7401513671875,0.1362457275390625,-0.590362548828125,-0.3567047119140625
1737749705556219400,1.750219482421875,0.219696044921875,-0.630645751953125,-0.436676025390625
1737749705566286300,1.760286376953125,0.2762603759765625,-0.6928558349609375,-0.53790283203125
1737749705576353300,1.770353271484375,0.3133087158203125,-0.745391845703125,-0.61773681640625
1737749705586420200,1.780420166015625,0.337677001953125,-0.760772705078125,-0.6489105224609375
1737749705596488400,1.790488525390625,0.3568878173828125,-0.750732421875,-0.64776611328125
1737749705606555400,1.800555419921875,0.38214111328125,-0.7433319091796875,-0.641754150390625
1737749705616622300,1.810622314453125,0.4639434814453125,-0.7658843994140625,-0.649261474609375
1737749705626690300,1.820690185546875,0.5702362060546875,-0.8456878662109375,-0.674835205078125
1737749705636757200,1.83075732421875,0.5717315673828125,-0.99798583984375,-0.7168121337890625
1737749705646824400,1.840824462890625,0.5232391357421875,-1.15997314453125,-0.7522125244140625
1737749705656891400,1.850891357421875,0.47088623046875,-1.2379913330078125,-0.73187255859375
1737749705666959600,1.860959716796875,0.4234466552734375,-1.1990509033203125,-0.6739654541015625
1737749705677026600,1.871026611328125,0.388275146484375,-1.0896759033203125,-0.617767333984375
1737749705687093500,1.881093505859375,0.3548431396484375,-0.9822235107421875,-0.590118408203125
1737749705697161500,1.891161376953125,0.3353424072265625,-0.919036865234375,-0.5904693603515625
1737749705707228400,1.901228515625,0.3269805908203125,-0.900726318359375,-0.5941925048828125
1737749705717295400,1.91129541015625,0.31927490234375,-0.9178009033203125,-0.5724029541015625
1737749705727362300,1.9213623046875,0.3256683349609375,-0.95989990234375,-0.527740478515625
1737749705737430300,1.93143017578125,0.34588623046875,-1.0079803466796875,-0.476806640625
1737749705747497200,1.941497314453125,0.3602447509765625,-1.0460662841796875,-0.4261322021484375
1737749705757564400,1.951564453125,0.366119384765625,-1.0654296875,-0.378662109375
1737749705767632400,1.96163232421875,0.3496551513671875,-1.070892333984375,-0.3284454345703125
1737749705777699600,1.971699462890625,0.323486328125,-1.0669403076171875,-0.27215576171875
1737749705787766500,1.9817666015625,0.30108642578125,-1.0628204345703125,-0.2194976806640625
1737749705797833500,1.99183349609375,0.2737274169921875,-1.0598297119140625,-0.1773223876953125
1737749705807901400,2.0019013671875,0.2504730224609375,-1.0577850341796875,-0.1412506103515625
1737749705817968400,2.011968505859375,0.228302001953125,-1.056182861328125,-0.1060791015625
1737749705828035300,2.022035400390625,0.2041015625,-1.0556793212890625,-0.0765533447265625
1737749705838102300,2.032102294921875,0.182830810546875,-1.059173583984375,-0.054046630859375
1737749705848170500,2.04217041015625,0.165313720703125,-1.0628662109375,-0.044158935546875
1737749705858237400,2.052237548828125,0.15423583984375,-1.065155029296875,-0.0448760986328125
1737749705868304400,2.062304443359375,0.1485595703125,-1.065338134765625,-0.0565948486328125
1737749705878372400,2.072372314453125,0.146026611328125,-1.064605712890625,-0.0759429931640625
1737749705888439300,2.082439208984375,0.1480865478515625,-1.0620269775390625,-0.0990447998046875
1737749705898506500,2.092506591796875,0.148773193359375,-1.058197021484375,-0.1208343505859375
1737749705908573400,2.102573486328125,0.1462860107421875,-1.0510101318359375,-0.138580322265625
1737749705918641400,2.112641357421875,0.1405792236328125,-1.045806884765625,-0.1527862548828125
1737749705928708400,2.122708251953125,0.1319427490234375,-1.043975830078125,-0.162139892578125
1737749705938775300,2.132775390625,0.126495361328125,-1.046112060546875,-0.1607208251953125
1737749705948843500,2.142843505859375,0.117828369140625,-1.0482330322265625,-0.1489715576171875
1737749705958910500,2.152910400390625,0.1037445068359375,-1.0499725341796875,-0.1338043212890625
1737749705968977400,2.162977294921875,0.0969696044921875,-1.05438232421875,-0.1173858642578125
1737749705979044400,2.17304443359375,0.091400146484375,-1.057220458984375,-0.102447509765625
1737749705989112300,2.1831123046875,0.091705322265625,-1.0583038330078125,-0.0826416015625
1737749705999179300,2.19317919921875,0.092864990234375,-1.07000732421875,-0.0615386962890625
1737749706009246500,2.20324658203125,0.0941925048828125,-1.104095458984375,-0.051849365234375
1737749706019314200,2.213314208984375,0.087249755859375,-1.1783905029296875,-0.05462646484375
1737749706029381600,2.223381591796875,0.0792999267578125,-1.23223876953125,-0.044647216796875
1737749706039448600,2.233448486328125,0.0781707763671875,-1.225982666015625,-0.023956298828125
1737749706049515500,2.243515625,0.042327880859375,-1.1782684326171875,-0.02703857421875
1737749706059583500,2.25358349609375,-0.000885009765625,-1.126739501953125,-0.0538787841796875
1737749706069650400,2.263650390625,-0.0286102294921875,-1.0839691162109375,-0.0910186767578125
1737749706079717400,2.27371728515625,-0.0379791259765625,-1.04669189453125,-0.125701904296875
1737749706089784300,2.283784423828125,-0.044647216796875,-1.0137481689453125,-0.1542816162109375
1737749706099852300,2.293852294921875,-0.076416015625,-0.984771728515625,-0.16845703125
1737749706109919200,2.303919189453125,-0.1242218017578125,-0.9668731689453125,-0.148345947265625
1737749706119986200,2.313986083984375,-0.182891845703125,-0.9641876220703125,-0.0956573486328125
1737749706130054400,2.324054443359375,-0.2406463623046875,-0.9649505615234375,-0.0296783447265625
1737749706140121300,2.334121337890625,-0.291839599609375,-0.954559326171875,0.0228424072265625
1737749706150188500,2.3441884765625,-0.329925537109375,-0.9256591796875,0.0414581298828125
1737749706160255500,2.35425537109375,-0.3553619384765625,-0.90032958984375,0.015350341796875
1737749706170323500,2.364323486328125,-0.3662567138671875,-0.89892578125,-0.038482666015625
1737749706180390400,2.374390380859375,-0.358642578125,-0.9206695556640625,-0.091827392578125
1737749706190457300,2.384457275390625,-0.3417510986328125,-0.955810546875,-0.127105712890625
1737749706200525600,2.394525634765625,-0.3279266357421875,-0.9915313720703125,-0.139129638671875
1737749706210592500,2.404592529296875,-0.316070556640625,-1.0218963623046875,-0.142425537109375
1737749706220659500,2.414659423828125,-0.301422119140625,-1.039520263671875,-0.14154052734375
1737749706230726700,2.4247265625,-0.28857421875,-1.0394439697265625,-0.144683837890625
1737749706240795000,2.434794921875,-0.279632568359375,-1.0237884521484375,-0.1569671630859375
1737749706250861800,2.44486181640625,-0.2706298828125,-0.9970550537109375,-0.1764984130859375
1737749706260928800,2.4549287109375,-0.259552001953125,-0.966278076171875,-0.198577880859375
1737749706270996700,2.464996826171875,-0.2521820068359375,-0.938507080078125,-0.220458984375
1737749706281063700,2.475063720703125,-0.2437286376953125,-0.9126739501953125,-0.2399444580078125
1737749706291131000,2.485130859375,-0.234527587890625,-0.885009765625,-0.247314453125
1737749706301197800,2.49519775390625,-0.2270355224609375,-0.8512725830078125,-0.2470550537109375
1737749706311265800,2.505265869140625,-0.2180023193359375,-0.8166656494140625,-0.2395477294921875
1737749706321332700,2.515332763671875,-0.2095184326171875,-0.7901611328125,-0.2275848388671875
1737749706331399700,2.525399658203125,-0.201171875,-0.7719573974609375,-0.212005615234375
1737749706341466600,2.535466552734375,-0.1929168701171875,-0.7592315673828125,-0.1966552734375
1737749706351534800,2.545534912109375,-0.1847991943359375,-0.7490386962890625,-0.18536376953125
1737749706361601800,2.555601806640625,-0.171844482421875,-0.7440643310546875,-0.1763763427734375
1737749706371668700,2.565668701171875,-0.1586456298828125,-0.7422943115234375,-0.17401123046875
1737749706381736700,2.57573681640625,-0.144775390625,-0.7444915771484375,-0.175140380859375
1737749706391803600,2.5858037109375,-0.12933349609375,-0.7513427734375,-0.179656982421875
1737749706401870800,2.595870849609375,-0.11572265625,-0.760345458984375,-0.1865081787109375
1737749706411937800,2.605937744140625,-0.1000823974609375,-0.764434814453125,-0.1927947998046875
1737749706422006000,2.616006103515625,-0.089202880859375,-0.7632293701171875,-0.1964263916015625
1737749706432073000,2.626072998046875,-0.0777587890625,-0.7621307373046875,-0.200469970703125
1737749706442140000,2.636139892578125,-0.0661468505859375,-0.762237548828125,-0.205841064453125
1737749706452207900,2.646207763671875,-0.060089111328125,-0.7613983154296875,-0.207427978515625
1737749706462274800,2.65627490234375,-0.05523681640625,-0.760406494140625,-0.2061614990234375
1737749706472341800,2.666341796875,-0.0500030517578125,-0.759918212890625,-0.2017822265625
1737749706482408700,2.67640869140625,-0.04296875,-0.7639923095703125,-0.1982574462890625
1737749706492476700,2.6864765625,-0.037200927734375,-0.765167236328125,-0.20147705078125
1737749706502543600,2.696543701171875,-0.03741455078125,-0.76519775390625,-0.2080230712890625
1737749706512610600,2.706610595703125,-0.032806396484375,-0.77191162109375,-0.2185211181640625
1737749706522678000,2.716677978515625,-0.02606201171875,-0.7817230224609375,-0.2284393310546875
1737749706532745700,2.726745849609375,-0.018707275390625,-0.7991943359375,-0.2416229248046875
1737749706542813000,2.73681298828125,-0.0117950439453125,-0.8200225830078125,-0.2540740966796875
1737749706552879900,2.7468798828125,-0.0070343017578125,-0.849639892578125,-0.2675933837890625
1737749706562947800,2.75694775390625,-0.0102081298828125,-0.88970947265625,-0.28369140625
1737749706573014800,2.767014892578125,-0.0101165771484375,-0.9296875,-0.2995758056640625
1737749706583081700,2.777081787109375,-0.0139617919921875,-0.9521942138671875,-0.313140869140625
1737749706593148700,2.787148681640625,-0.0256805419921875,-0.957489013671875,-0.3271636962890625
1737749706603217000,2.797216796875,-0.04400634765625,-0.954132080078125,-0.33697509765625
1737749706613283800,2.807283935546875,-0.063018798828125,-0.9525604248046875,-0.342315673828125
1737749706623350800,2.817350830078125,-0.0762939453125,-0.970672607421875,-0.3521575927734375
1737749706633417700,2.827417724609375,-0.0848388671875,-1.0106353759765625,-0.3670196533203125
1737749706643485700,2.837485595703125,-0.0800323486328125,-1.0697021484375,-0.386138916015625
1737749706653553000,2.847552978515625,-0.0476531982421875,-1.177642822265625,-0.417755126953125
1737749706663619800,2.857619873046875,-0.010498046875,-1.34588623046875,-0.4380340576171875
1737749706673687800,2.867687744140625,0.001617431640625,-1.5138092041015625,-0.4072418212890625
1737749706683754800,2.877754638671875,-0.0036773681640625,-1.590850830078125,-0.3377838134765625
1737749706693821700,2.88782177734375,-0.0551300048828125,-1.5210723876953125,-0.243865966796875
1737749706703889000,2.897888916015625,-0.13861083984375,-1.368194580078125,-0.1497039794921875
1737749706713956900,2.907956787109375,-0.20263671875,-1.225860595703125,-0.065185546875
1737749706724023800,2.91802392578125,-0.2374420166015625,-1.113250732421875,0.0145111083984375
1737749706734090800,2.9280908203125,-0.2652587890625,-1.0241241455078125,0.065032958984375
1737749706744157700,2.93815771484375,-0.2930145263671875,-0.9765472412109375,0.0673675537109375
1737749706754225700,2.9482255859375,-0.3129425048828125,-0.9753265380859375,0.040191650390625
1737749706764292600,2.958292724609375,-0.3130645751953125,-1.002471923828125,0.0240936279296875
1737749706774359800,2.96835986328125,-0.294464111328125,-1.0503082275390625,0.0340423583984375
1737749706784427800,2.978427734375,-0.26922607421875,-1.109039306640625,0.0505828857421875
1737749706794495000,2.988494873046875,-0.2412261962890625,-1.154998779296875,0.0588226318359375
1737749706804562000,2.99856201171875,-0.2202911376953125,-1.1779022216796875,0.0489349365234375
1737749706814628900,3.00862890625,-0.20648193359375,-1.1872406005859375,0.02471923828125
1737749706824696800,3.01869677734375,-0.1902008056640625,-1.1953277587890625,-0.003143310546875
1737749706834763800,3.028763671875,-0.1710052490234375,-1.1898956298828125,-0.0301666259765625
1737749706844830700,3.038830810546875,-0.16070556640625,-1.1680755615234375,-0.0582427978515625
1737749706854897700,3.048897705078125,-0.154876708984375,-1.1361236572265625,-0.089202880859375
1737749706864965600,3.058965576171875,-0.149261474609375,-1.1104278564453125,-0.1179656982421875
1737749706875032600,3.069032470703125,-0.1422271728515625,-1.0912017822265625,-0.143280029296875
1737749706885099800,3.079099853515625,-0.1290283203125,-1.0704193115234375,-0.162017822265625
1737749706895167700,3.089167724609375,-0.12005615234375,-1.0419921875,-0.1754302978515625
1737749706905234700,3.099234619140625,-0.1122894287109375,-1.0057373046875,-0.1802215576171875
1737749706915302000,3.109302001953125,-0.1023101806640625,-0.96234130859375,-0.1794586181640625
1737749706925368800,3.119368896484375,-0.0946807861328125,-0.9236297607421875,-0.17706298828125
1737749706935436800,3.129436767578125,-0.0948333740234375,-0.894805908203125,-0.1759490966796875
1737749706945503700,3.139503662109375,-0.0890045166015625,-0.87347412109375,-0.1797332763671875
1737749706955570700,3.14957080078125,-0.0796356201171875,-0.8574981689453125,-0.186737060546875
1737749706965639000,3.159638916015625,-0.0788726806640625,-0.8508148193359375,-0.1859130859375
1737749706975705900,3.169705810546875,-0.077301025390625,-0.845794677734375,-0.1738128662109375
1737749706985772800,3.179772705078125,-0.075836181640625,-0.837188720703125,-0.1631011962890625
1737749706995839700,3.18983984375,-0.0752105712890625,-0.8286590576171875,-0.1557769775390625
1737749707005907700,3.19990771484375,-0.0737457275390625,-0.8197174072265625,-0.1493682861328125
1737749707015974700,3.209974609375,-0.0776519775390625,-0.814208984375,-0.137786865234375
1737749707026041900,3.220041748046875,-0.0819854736328125,-0.810821533203125,-0.12335205078125
1737749707036108800,3.23010888671875,-0.084381103515625,-0.8088226318359375,-0.107666015625
1737749707046176800,3.2401767578125,-0.0871124267578125,-0.8059539794921875,-0.0886688232421875
1737749707056244000,3.250243896484375,-0.0883026123046875,-0.800018310546875,-0.0667724609375
1737749707066311000,3.260310791015625,-0.0959014892578125,-0.7946624755859375,-0.0414276123046875
1737749707076379000,3.27037890625,-0.1058197021484375,-0.7875823974609375,-0.0131378173828125
1737749707086445800,3.28044580078125,-0.117401123046875,-0.7821502685546875,0.0147247314453125
1737749707096512800,3.2905126953125,-0.1282958984375,-0.7781982421875,0.040924072265625
1737749707106579700,3.300579833984375,-0.139312744140625,-0.775970458984375,0.0577545166015625
1737749707116647700,3.310647705078125,-0.1501922607421875,-0.7697296142578125,0.0660858154296875
1737749707126714600,3.320714599609375,-0.1624298095703125,-0.7617950439453125,0.062591552734375
1737749707136781600,3.330781494140625,-0.1800537109375,-0.75201416015625,0.056304931640625
1737749707146849800,3.340849853515625,-0.2038116455078125,-0.742523193359375,0.0469512939453125
1737749707156916700,3.350916748046875,-0.2238311767578125,-0.7315216064453125,0.0364990234375
1737749707166984000,3.36098388671875,-0.244232177734375,-0.7181549072265625,0.0243988037109375
1737749707177051000,3.37105078125,-0.2681732177734375,-0.6956329345703125,0.01373291015625
1737749707187118800,3.381118896484375,-0.2960968017578125,-0.659454345703125,-0.0015716552734375
1737749707197185800,3.391185791015625,-0.321075439453125,-0.610015869140625,-0.0177764892578125
1737749707207252700,3.401252685546875,-0.3443603515625,-0.54974365234375,-0.03179931640625
1737749707217319700,3.411319580078125,-0.3573455810546875,-0.490142822265625,-0.046112060546875
1737749707227387100,3.42138720703125,-0.367645263671875,-0.44415283203125,-0.05303955078125
1737749707237454000,3.4314541015625,-0.365234375,-0.430908203125,-0.0542144775390625
1737749707247521300,3.441521240234375,-0.373565673828125,-0.460540771484375,-0.0517120361328125
1737749707257589200,3.45158935546875,-0.3860626220703125,-0.521881103515625,-0.04998779296875
1737749707267656400,3.461656494140625,-0.39923095703125,-0.6029510498046875,-0.05322265625
1737749707277723400,3.471723388671875,-0.4110260009765625,-0.683013916015625,-0.041656494140625
1737749707287790300,3.481790283203125,-0.4091644287109375,-0.736785888671875,-0.020843505859375
1737749707297858300,3.4918583984375,-0.4032745361328125,-0.765380859375,-0.002166748046875
1737749707307925200,3.50192529296875,-0.4047088623046875,-0.7830352783203125,0.0124969482421875
1737749707317992200,3.5119921875,-0.4127960205078125,-0.794219970703125,0.0294647216796875
1737749707328059100,3.52205908203125,-0.4136810302734375,-0.8126068115234375,0.0495452880859375
1737749707338127400,3.53212744140625,-0.4096221923828125,-0.849151611328125,0.0763092041015625
1737749707348194300,3.5421943359375,-0.40277099609375,-0.903564453125,0.115478515625
1737749707358261200,3.55226123046875,-0.3898468017578125,-0.959197998046875,0.158447265625
1737749707368329200,3.5623291015625,-0.381011962890625,-1.007049560546875,0.207244873046875
1737749707378396200,3.572396240234375,-0.38623046875,-1.03204345703125,0.251739501953125
1737749707388463400,3.58246337890625,-0.398406982421875,-1.029510498046875,0.2761383056640625
1737749707398530300,3.5925302734375,-0.4218597412109375,-1.002716064453125,0.282012939453125
1737749707408598300,3.602598388671875,-0.4441375732421875,-0.9644622802734375,0.280059814453125
1737749707418665200,3.612665283203125,-0.4644775390625,-0.9292755126953125,0.2728118896484375
1737749707428732400,3.622732421875,-0.4811859130859375,-0.9009246826171875,0.262786865234375
1737749707438800400,3.63280029296875,-0.495086669921875,-0.8759918212890625,0.2547149658203125
1737749707448867300,3.642867431640625,-0.507781982421875,-0.8455657958984375,0.25482177734375
1737749707458934300,3.652934326171875,-0.5152587890625,-0.8099517822265625,0.261138916015625
1737749707469001200,3.663001220703125,-0.511932373046875,-0.77752685546875,0.2696380615234375
1737749707479069200,3.673069091796875,-0.5069732666015625,-0.763946533203125,0.273101806640625
1737749707489136000,3.68313623046875,-0.4957122802734375,-0.7657928466796875,0.2704925537109375
1737749707499203300,3.693203369140625,-0.482757568359375,-0.769927978515625,0.261474609375
1737749707509270300,3.703270263671875,-0.472015380859375,-0.773895263671875,0.2488250732421875
1737749707519338500,3.71333837890625,-0.45623779296875,-0.7843017578125,0.240692138671875
1737749707529405400,3.723405517578125,-0.4371337890625,-0.800506591796875,0.2419891357421875
1737749707539472400,3.733472412109375,-0.4172210693359375,-0.82373046875,0.24981689453125
1737749707549540400,3.743540283203125,-0.4032135009765625,-0.8416900634765625,0.26287841796875
1737749707559607300,3.753607177734375,-0.393218994140625,-0.8509063720703125,0.2734375
1737749707569674200,3.76367431640625,-0.394256591796875,-0.843505859375,0.27850341796875
1737749707579741200,3.7737412109375,-0.3958282470703125,-0.8222503662109375,0.2780609130859375
1737749707589809200,3.78380908203125,-0.385498046875,-0.8023529052734375,0.2820892333984375
1737749707599876000,3.7938759765625,-0.368194580078125,-0.789093017578125,0.2979278564453125
1737749707609943300,3.803943359375,-0.352264404296875,-0.7767486572265625,0.3274688720703125
1737749707620011300,3.81401123046875,-0.3431549072265625,-0.7574462890625,0.3732147216796875
1737749707630078200,3.824078125,-0.34344482421875,-0.7350921630859375,0.42822265625
1737749707640145400,3.8341455078125,-0.3361053466796875,-0.7211456298828125,0.4807281494140625
1737749707650212400,3.84421240234375,-0.3091583251953125,-0.731048583984375,0.533447265625
1737749707660280300,3.8542802734375,-0.2805938720703125,-0.7848663330078125,0.5866851806640625
1737749707670347300,3.86434716796875,-0.2521820068359375,-0.889892578125,0.6317291259765625
1737749707680414200,3.874414306640625,-0.24273681640625,-1.016937255859375,0.6699371337890625
1737749707690482400,3.884482421875,-0.259063720703125,-1.1220245361328125,0.702178955078125
1737749707700549400,3.89454931640625,-0.301361083984375,-1.179290771484375,0.72381591796875
1737749707710616300,3.9046162109375,-0.3525848388671875,-1.1863555908203125,0.73370361328125
1737749707720683300,3.914683349609375,-0.397216796875,-1.1586151123046875,0.719207763671875
1737749707730751200,3.924751220703125,-0.432952880859375,-1.1200103759765625,0.6766204833984375
1737749707740818200,3.934818115234375,-0.4564361572265625,-1.08203125,0.62445068359375
1737749707750885400,3.944885498046875,-0.4766845703125,-1.0470733642578125,0.587554931640625
1737749707760952300,3.954952392578125,-0.496612548828125,-1.019317626953125,0.5726776123046875
1737749707771020300,3.965020263671875,-0.5034942626953125,-1.007232666015625,0.5675201416015625
1737749707781087500,3.97508740234375,-0.511383056640625,-1.0158843994140625,0.566986083984375
1737749707791154400,3.985154541015625,-0.52020263671875,-1.03338623046875,0.5669708251953125
1737749707801222400,3.995222412109375,-0.531524658203125,-1.055389404296875,0.5621795654296875
1737749707811289300,4.005289306640625,-0.534454345703125,-1.0739593505859375,0.55609130859375
1737749707821356300,4.015356201171875,-0.538665771484375,-1.0916900634765625,0.54925537109375
1737749707831423200,4.02542333984375,-0.5451812744140625,-1.1165313720703125,0.5384979248046875
1737749707841491200,4.0354912109375,-0.549591064453125,-1.130218505859375,0.5285186767578125
1737749707851558100,4.04555810546875,-0.542327880859375,-1.118011474609375,0.5214691162109375
1737749707861625000,4.055625,-0.527984619140625,-1.087158203125,0.514404296875
1737749707871692300,4.0656923828125,-0.5074005126953125,-1.0647430419921875,0.5078582763671875
1737749707881760300,4.07576025390625,-0.477325439453125,-1.0625,0.5064697265625
1737749707891827500,4.085827392578125,-0.452423095703125,-1.07928466796875,0.511016845703125
1737749707901894400,4.095894287109375,-0.4360198974609375,-1.1074066162109375,0.5196990966796875
1737749707911962400,4.10596240234375,-0.4251556396484375,-1.1372528076171875,0.5323333740234375
1737749707922029300,4.116029296875,-0.414703369140625,-1.158660888671875,0.5445709228515625
1737749707932096300,4.12609619140625,-0.409393310546875,-1.17742919921875,0.5557403564453125
1737749707942164200,4.136164306640625,-0.40850830078125,-1.2025146484375,0.5638580322265625
1737749707952231200,4.146231201171875,-0.4146270751953125,-1.234222412109375,0.5770111083984375
1737749707962298400,4.15629833984375,-0.417327880859375,-1.2658538818359375,0.59332275390625
1737749707972365300,4.166365234375,-0.4149322509765625,-1.2866058349609375,0.607421875
1737749707982433300,4.176433349609375,-0.422454833984375,-1.2918243408203125,0.6187896728515625
1737749707992500200,4.186500244140625,-0.4405059814453125,-1.2794342041015625,0.62298583984375
1737749708002567200,4.196567138671875,-0.4603271484375,-1.2515106201171875,0.625213623046875
1737749708012634400,4.20663427734375,-0.489532470703125,-1.21234130859375,0.6301727294921875
1737749708022702300,4.216702392578125,-0.5235443115234375,-1.1674652099609375,0.62994384765625
1737749708032769300,4.226769287109375,-0.5417633056640625,-1.1168060302734375,0.62542724609375
1737749708042836200,4.236836181640625,-0.5432891845703125,-1.07635498046875,0.613189697265625
1737749708052904400,4.246904541015625,-0.5296173095703125,-1.063873291015625,0.592864990234375
1737749708062971400,4.256971435546875,-0.51702880859375,-1.08056640625,0.56732177734375
1737749708073038300,4.267038330078125,-0.5087890625,-1.112335205078125,0.5424652099609375
1737749708083105300,4.277105224609375,-0.500396728515625,-1.145538330078125,0.5167083740234375
1737749708093173200,4.28717333984375,-0.492706298828125,-1.1726531982421875,0.4963531494140625
1737749708103240200,4.297240234375,-0.485260009765625,-1.19482421875,0.4746856689453125
1737749708113307100,4.30730712890625,-0.47406005859375,-1.216217041015625,0.4513092041015625
1737749708123375000,4.317375,-0.4596099853515625,-1.2374725341796875,0.431304931640625
1737749708133442000,4.327442138671875,-0.4393768310546875,-1.250640869140625,0.4163818359375
1737749708143509500,4.337509521484375,-0.424072265625,-1.2479400634765625,0.411041259765625
1737749708153576400,4.347576416015625,-0.417694091796875,-1.2310943603515625,0.40362548828125
1737749708163644400,4.35764453125,-0.409393310546875,-1.2098236083984375,0.389007568359375
1737749708173711400,4.36771142578125,-0.3924713134765625,-1.1845550537109375,0.371124267578125
1737749708183778300,4.3777783203125,-0.3755340576171875,-1.1596221923828125,0.3581695556640625
1737749708193846300,4.38784619140625,-0.36224365234375,-1.1339569091796875,0.3531494140625
1737749708203913200,4.397913330078125,-0.3570404052734375,-1.1153564453125,0.350982666015625
1737749708213980200,4.407980224609375,-0.35296630859375,-1.1037139892578125,0.3509674072265625
1737749708224047600,4.418047607421875,-0.34771728515625,-1.0921173095703125,0.3454132080078125
1737749708234115600,4.428115478515625,-0.33746337890625,-1.0757293701171875,0.333526611328125
1737749708244182500,4.4381826171875,-0.3229827880859375,-1.0501861572265625,0.3194427490234375
1737749708254249700,4.448249755859375,-0.3030853271484375,-1.013275146484375,0.3064727783203125
1737749708264317700,4.458317626953125,-0.283660888671875,-0.964141845703125,0.2951812744140625
1737749708274384600,4.468384521484375,-0.2622528076171875,-0.9156494140625,0.2841796875
1737749708284451800,4.478451904296875,-0.2461090087890625,-0.87744140625,0.272186279296875
1737749708294518800,4.488518798828125,-0.2287750244140625,-0.852294921875,0.2620849609375
1737749708304586800,4.498586669921875,-0.2102508544921875,-0.8385162353515625,0.250335693359375
1737749708314653700,4.50865380859375,-0.19085693359375,-0.83062744140625,0.2343902587890625
1737749708324720600,4.518720703125,-0.1732330322265625,-0.8232879638671875,0.2169036865234375
1737749708334788900,4.528788818359375,-0.15679931640625,-0.8148651123046875,0.19940185546875
1737749708344855800,4.538855712890625,-0.143280029296875,-0.803680419921875,0.1851959228515625
1737749708354922800,4.5489228515625,-0.136260986328125,-0.7880859375,0.173980712890625
1737749708364989700,4.55898974609375,-0.13079833984375,-0.76416015625,0.164886474609375
1737749708375057700,4.5690576171875,-0.1247100830078125,-0.737152099609375,0.1526947021484375
1737749708385124600,4.57912451171875,-0.1194610595703125,-0.7165374755859375,0.14068603515625
1737749708395191600,4.589191650390625,-0.1164398193359375,-0.703033447265625,0.13067626953125
1737749708405259500,4.599259521484375,-0.1108245849609375,-0.691986083984375,0.1221160888671875
1737749708415326700,4.60932666015625,-0.112579345703125,-0.6859130859375,0.1081085205078125
1737749708425393700,4.6193935546875,-0.1175537109375,-0.6824493408203125,0.0923614501953125
1737749708435460900,4.6294609375,-0.1216583251953125,-0.67681884765625,0.07452392578125
1737749708445528800,4.63952880859375,-0.123291015625,-0.669403076171875,0.057037353515625
1737749708455595800,4.649595703125,-0.1230621337890625,-0.6649932861328125,0.039703369140625
1737749708465662700,4.659662841796875,-0.1235809326171875,-0.66845703125,0.019866943359375
1737749708475730700,4.669730712890625,-0.1221466064453125,-0.6805572509765625,-0.0008697509765625
1737749708485797600,4.679797607421875,-0.1200408935546875,-0.689544677734375,-0.02264404296875
1737749708495864600,4.689864501953125,-0.1158294677734375,-0.6932525634765625,-0.052581787109375
1737749708505932800,4.699932861328125,-0.1142120361328125,-0.690185546875,-0.0847930908203125
1737749708515999700,4.709999755859375,-0.113128662109375,-0.6837310791015625,-0.11444091796875
1737749708526066700,4.720066650390625,-0.1099395751953125,-0.682281494140625,-0.1395263671875
1737749708536134000,4.7301337890625,-0.1051177978515625,-0.6892547607421875,-0.1569976806640625
1737749708546201600,4.74020166015625,-0.093902587890625,-0.70538330078125,-0.1670684814453125
1737749708556268800,4.750268798828125,-0.0868682861328125,-0.728363037109375,-0.172149658203125
1737749708566335700,4.760335693359375,-0.0917205810546875,-0.7462005615234375,-0.170806884765625
1737749708576403700,4.77040380859375,-0.1009674072265625,-0.751068115234375,-0.16632080078125
1737749708586470700,4.780470703125,-0.1129913330078125,-0.7378692626953125,-0.1555938720703125
1737749708596537600,4.79053759765625,-0.1278839111328125,-0.7133026123046875,-0.1387786865234375
1737749708606604800,4.800604736328125,-0.1385955810546875,-0.6915130615234375,-0.124481201171875
1737749708616672800,4.8106728515625,-0.143096923828125,-0.6934967041015625,-0.12322998046875
1737749708626739700,4.82073974609375,-0.1520843505859375,-0.7263031005859375,-0.131011962890625
1737749708636806700,4.830806640625,-0.1673583984375,-0.7866058349609375,-0.140777587890625
1737749708646874600,4.84087451171875,-0.192901611328125,-0.8598175048828125,-0.150787353515625
1737749708656941600,4.850941650390625,-0.2304534912109375,-0.9357757568359375,-0.1568603515625
1737749708667008500,4.861008544921875,-0.26715087890625,-0.9966583251953125,-0.1487884521484375
1737749708677075700,4.87107568359375,-0.298828125,-1.035003662109375,-0.1462860107421875
1737749708687143700,4.881143798828125,-0.3388519287109375,-1.0540008544921875,-0.154815673828125
1737749708697211000,4.8912109375,-0.3945465087890625,-1.051849365234375,-0.1687774658203125
1737749708707277800,4.90127783203125,-0.44622802734375,-1.004669189453125,-0.192657470703125
1737749708717345800,4.911345703125,-0.471527099609375,-0.912841796875,-0.237396240234375
1737749708727412700,4.921412841796875,-0.4798126220703125,-0.8048858642578125,-0.287078857421875
1737749708737479700,4.931479736328125,-0.4754791259765625,-0.7195892333984375,-0.3369903564453125
1737749708747547600,4.941547607421875,-0.4813079833984375,-0.6851806640625,-0.3890228271484375
1737749708757614600,4.951614501953125,-0.511260986328125,-0.722747802734375,-0.4254913330078125
1737749708767681500,4.961681640625,-0.538360595703125,-0.80438232421875,-0.43072509765625
1737749708777748500,4.97174853515625,-0.5524444580078125,-0.877044677734375,-0.3986663818359375
1737749708787816700,4.981816650390625,-0.5583648681640625,-0.9095916748046875,-0.3440399169921875
1737749708797883600,4.991883544921875,-0.5544281005859375,-0.90283203125,-0.2958984375
1737749708807950800,5.001950927734375,-0.5494537353515625,-0.8806304931640625,-0.273284912109375
1737749708818018600,5.0120185546875,-0.5430755615234375,-0.872161865234375,-0.2664947509765625
1737749708828085800,5.022085693359375,-0.5528106689453125,-0.890380859375,-0.2587127685546875
1737749708838152700,5.032152587890625,-0.5748291015625,-0.9438018798828125,-0.247467041015625
1737749708848219600,5.0422197265625,-0.5910186767578125,-1.012939453125,-0.229095458984375
1737749708858287900,5.052287841796875,-0.5811920166015625,-1.0450439453125,-0.204986572265625
1737749708868354800,5.062354736328125,-0.560577392578125,-1.0146942138671875,-0.1816253662109375
1737749708878421800,5.072421875,-0.5441741943359375,-0.9437103271484375,-0.17303466796875
1737749708888489700,5.08248974609375,-0.5385589599609375,-0.8863525390625,-0.1888580322265625
1737749708898556700,5.092556640625,-0.5248565673828125,-0.8831329345703125,-0.2194976806640625
1737749708908623600,5.10262353515625,-0.505859375,-0.9241485595703125,-0.2549285888671875
1737749708918691600,5.112691650390625,-0.4970550537109375,-0.9710540771484375,-0.28228759765625
1737749708928758500,5.122758544921875,-0.4891357421875,-0.97869873046875,-0.2971038818359375
1737749708938825700,5.13282568359375,-0.4670867919921875,-0.9257354736328125,-0.2966461181640625
1737749708948892700,5.142892578125,-0.4547119140625,-0.8284912109375,-0.2936248779296875
1737749708958961000,5.1529609375,-0.438140869140625,-0.7404937744140625,-0.3045806884765625
1737749708969027800,5.16302783203125,-0.39215087890625,-0.7108001708984375,-0.334503173828125
1737749708979094800,5.1730947265625,-0.3467254638671875,-0.723663330078125,-0.3692779541015625
1737749708989162800,5.183162841796875,-0.3109283447265625,-0.7520294189453125,-0.4164581298828125
1737749708999229700,5.193229736328125,-0.2512664794921875,-0.798492431640625,-0.4600982666015625
1737749709009296600,5.203296630859375,-0.207977294921875,-0.8223419189453125,-0.499420166015625
1737749709019364600,5.213364501953125,-0.128570556640625,-0.7640228271484375,-0.539794921875
1737749709029431600,5.223431640625,-0.055572509765625,-0.6916351318359375,-0.5876922607421875
1737749709039498800,5.233498779296875,-0.0187225341796875,-0.6369476318359375,-0.6404266357421875
1737749709049565700,5.243565673828125,0.00128173828125,-0.55621337890625,-0.6670684814453125
1737749709059633700,5.253633544921875,0.009674072265625,-0.444549560546875,-0.6543121337890625
1737749709069700600,5.26370068359375,0.0312347412109375,-0.3416748046875,-0.624298095703125
1737749709079767800,5.273767822265625,0.074981689453125,-0.3094329833984375,-0.6140899658203125
1737749709089835500,5.28383544921875,0.1156463623046875,-0.3544769287109375,-0.65625
1737749709099902700,5.29390283203125,0.14794921875,-0.4454498291015625,-0.7150726318359375
1737749709109969700,5.3039697265625,0.173675537109375,-0.5019378662109375,-0.777435302734375
1737749709120038000,5.314037841796875,0.21417236328125,-0.4862823486328125,-0.8407135009765625
1737749709130104800,5.324104736328125,0.25018310546875,-0.4313201904296875,-0.9132232666015625
1737749709140171800,5.334171875,0.257781982421875,-0.3313140869140625,-0.9730072021484375
1737749709150238700,5.34423876953125,0.2481536865234375,-0.1951141357421875,-0.982635498046875
1737749709160306700,5.354306640625,0.2138671875,-0.0575714111328125,-0.94976806640625
1737749709170373600,5.36437353515625,0.2020721435546875,0.0394744873046875,-0.903656005859375
1737749709180440600,5.374440673828125,0.196197509765625,0.0690460205078125,-0.84454345703125
1737749709190508500,5.384508544921875,0.1848907470703125,0.0415496826171875,-0.740020751953125
1737749709200575500,5.394575439453125,0.160003662109375,-0.023590087890625,-0.5936126708984375
1737749709210642700,5.404642578125,0.142547607421875,-0.1092681884765625,-0.4376068115234375
1737749709220710700,5.414710693359375,0.133575439453125,-0.1890411376953125,-0.309295654296875
1737749709230777300,5.42477734375,0.1330413818359375,-0.2397613525390625,-0.2198028564453125
1737749709240844300,5.43484423828125,0.13189697265625,-0.279205322265625,-0.156341552734375
1737749709250912300,5.444912353515625,0.1310882568359375,-0.33111572265625,-0.108245849609375
1737749709260979200,5.454979248046875,0.1196746826171875,-0.3970489501953125,-0.0692138671875
1737749709271046100,5.465046142578125,0.108367919921875,-0.4904632568359375,-0.030517578125
1737749709281113000,5.475113037109375,0.0973358154296875,-0.674072265625,0.0161895751953125
1737749709291181000,5.48518115234375,0.118133544921875,-1.0449371337890625,0.0573577880859375
1737749709301248000,5.495248046875,0.1463623046875,-1.617950439453125,0.08648681640625
1737749709311315000,5.50531494140625,0.0733795166015625,-2.165252685546875,0.1576690673828125
1737749709321383200,5.515383056640625,-0.1219024658203125,-2.24627685546875,0.3271331787109375
1737749709331450000,5.5254501953125,-0.3123931884765625,-1.8798828125,0.4920654296875
1737749709341517300,5.535517333984375,-0.394683837890625,-1.6184539794921875,0.518524169921875
1737749709351585000,5.5455849609375,-0.3816986083984375,-1.6401824951171875,0.4074554443359375
1737749709361652200,5.55565234375,-0.3544921875,-1.7422943115234375,0.234283447265625
1737749709371719200,5.56571923828125,-0.3760223388671875,-1.7505035400390625,0.10693359375
1737749709381786000,5.5757861328125,-0.4340972900390625,-1.5977783203125,0.078338623046875
1737749709391854000,5.58585400390625,-0.461761474609375,-1.430328369140625,0.03399658203125
1737749709401921300,5.59592138671875,-0.439453125,-1.3668060302734375,-0.057647705078125
1737749709411988200,5.60598828125,-0.3412628173828125,-1.405487060546875,-0.1548614501953125
1737749709422056200,5.61605615234375,-0.2180023193359375,-1.5604248046875,-0.2440948486328125
1737749709432123100,5.626123046875,-0.133026123046875,-1.7734375,-0.2768402099609375
1737749709442190000,5.636190185546875,-0.0999603271484375,-1.861541748046875,-0.238250732421875
1737749709452258000,5.646258056640625,-0.106231689453125,-1.747528076171875,-0.1564788818359375
1737749709462325000,5.656324951171875,-0.117279052734375,-1.562774658203125,-0.0680999755859375
1737749709472392200,5.66639208984375,-0.1076507568359375,-1.4381561279296875,0.0107421875
1737749709482459100,5.676459228515625,-0.0859222412109375,-1.396026611328125,0.0540771484375
1737749709492527400,5.68652734375,-0.067138671875,-1.403961181640625,0.022674560546875
1737749709502594300,5.69659423828125,-0.0622711181640625,-1.4087066650390625,-0.0686798095703125
1737749709512661200,5.7066611328125,-0.0523529052734375,-1.3902435302734375,-0.15380859375
1737749709522729200,5.716729248046875,-0.045135498046875,-1.334686279296875,-0.19061279296875
1737749709532796200,5.726796142578125,-0.0454559326171875,-1.232330322265625,-0.1966705322265625
1737749709542863000,5.736863037109375,-0.0545196533203125,-1.1027374267578125,-0.202728271484375
1737749709552931000,5.74693115234375,-0.0592193603515625,-0.9829864501953125,-0.222991943359375
1737749709562998000,5.756998046875,-0.026092529296875,-0.8909149169921875,-0.262939453125
1737749709573065000,5.76706494140625,0.002899169921875,-0.825103759765625,-0.3141632080078125
1737749709583132200,5.777132080078125,0.0244903564453125,-0.7818450927734375,-0.3662261962890625
1737749709593200000,5.7872001953125,0.06719970703125,-0.7604217529296875,-0.3999176025390625
1737749709603267000,5.79726708984375,0.1069488525390625,-0.74664306640625,-0.38995361328125
1737749709613334300,5.807334228515625,0.117431640625,-0.7500457763671875,-0.3539276123046875
1737749709623402200,5.81740234375,0.0766143798828125,-0.7928314208984375,-0.32452392578125
1737749709633469200,5.82746923828125,0.058441162109375,-0.8686065673828125,-0.309814453125
1737749709643536100,5.8375361328125,0.0509033203125,-0.9492645263671875,-0.30340576171875
1737749709653604400,5.847604248046875,0.0721588134765625,-0.993255615234375,-0.2778778076171875
1737749709663671300,5.85767138671875,0.102203369140625,-0.9864501953125,-0.2136383056640625
1737749709673738200,5.86773828125,0.1129608154296875,-0.9647979736328125,-0.13995361328125
1737749709683806200,5.87780615234375,0.107513427734375,-0.9760589599609375,-0.097869873046875
1737749709693873200,5.887873046875,0.1270751953125,-1.0285491943359375,-0.097076416015625
1737749709703940000,5.897940185546875,0.1155242919921875,-1.104522705078125,-0.1327667236328125
1737749709714007000,5.908007080078125,0.1212005615234375,-1.1688995361328125,-0.1882781982421875
1737749709724075000,5.918074951171875,0.11474609375,-1.1875,-0.2541656494140625
1737749709734142000,5.928141845703125,0.101470947265625,-1.1699371337890625,-0.31304931640625
1737749709744209200,5.938209228515625,0.1271514892578125,-1.14630126953125,-0.3645477294921875
1737749709754277000,5.948277099609375,0.1596527099609375,-1.1246490478515625,-0.398956298828125
1737749709764344300,5.95834423828125,0.223358154296875,-1.0904693603515625,-0.4129180908203125
1737749709774411300,5.968411376953125,0.2771453857421875,-1.01373291015625,-0.399078369140625
1737749709784479200,5.978479248046875,0.27239990234375,-0.9176177978515625,-0.3612823486328125
1737749709794546200,5.988546142578125,0.2125244140625,-0.8626556396484375,-0.3240966796875
1737749709804613000,5.998613037109375,0.1095123291015625,-0.8736419677734375,-0.2872161865234375
1737749709814681000,6.00868115234375,-0.0079498291015625,-0.9451141357421875,-0.2515716552734375
1737749709824748000,6.018748046875,-0.07257080078125,-1.0259857177734375,-0.222442626953125
1737749709834815200,6.028815185546875,-0.1000518798828125,-1.0474090576171875,-0.2020111083984375
1737749709844882200,6.038882080078125,-0.122161865234375,-1.0038909912109375,-0.1888580322265625
1737749709854950100,6.0489501953125,-0.132354736328125,-0.959503173828125,-0.191650390625
1737749709865017000,6.05901708984375,-0.0946044921875,-0.975128173828125,-0.206817626953125
1737749709875084300,6.069084228515625,-0.055145263671875,-1.0334320068359375,-0.2081298828125
1737749709885152000,6.079152099609375,-0.05474853515625,-1.0812225341796875,-0.19921875
1737749709895219200,6.08921923828125,-0.085968017578125,-1.0710296630859375,-0.19818115234375
1737749709905286100,6.0992861328125,-0.101470947265625,-0.9880523681640625,-0.21466064453125
1737749709915354400,6.109354248046875,-0.125640869140625,-0.89208984375,-0.248016357421875
1737749709925421300,6.11942138671875,-0.155029296875,-0.8342437744140625,-0.277984619140625
1737749709935488300,6.12948828125,-0.1633453369140625,-0.8301239013671875,-0.2882537841796875
1737749709945556200,6.13955615234375,-0.1532440185546875,-0.8848114013671875,-0.27984619140625
1737749709955623200,6.149623046875,-0.1439361572265625,-0.957489013671875,-0.2379913330078125
1737749709965690000,6.159690185546875,-0.1400909423828125,-1.0096282958984375,-0.16644287109375
1737749709975757000,6.169757080078125,-0.1763153076171875,-1.039031982421875,-0.0962982177734375
1737749709985825000,6.179824951171875,-0.2333526611328125,-1.0243682861328125,-0.0333099365234375
1737749709995892000,6.18989208984375,-0.266021728515625,-0.97357177734375,0.0089111328125
1737749710005959200,6.199959228515625,-0.2713470458984375,-0.93255615234375,0.0281829833984375
1737749710016027100,6.210027099609375,-0.26275634765625,-0.92584228515625,0.029937744140625
1737749710026094000,6.220093994140625,-0.2451629638671875,-0.9396514892578125,0.0121612548828125
1737749710036161300,6.230161376953125,-0.229278564453125,-0.9531707763671875,-0.0188140869140625
1737749710046229200,6.240229248046875,-0.2058563232421875,-0.9488525390625,-0.056976318359375
1737749710056296200,6.250296142578125,-0.1808624267578125,-0.929290771484375,-0.0940704345703125
1737749710066363100,6.260363037109375,-0.16552734375,-0.9126739501953125,-0.1261138916015625
1737749710076431400,6.270431396484375,-0.1597442626953125,-0.919677734375,-0.1543731689453125
1737749710086498300,6.280498291015625,-0.156707763671875,-0.939422607421875,-0.173309326171875
1737749710096565200,6.290565185546875,-0.1544952392578125,-0.95782470703125,-0.1881103515625
1737749710106632200,6.300632080078125,-0.144561767578125,-0.97686767578125,-0.208526611328125
1737749710116700200,6.3107001953125,-0.142303466796875,-0.9843292236328125,-0.2404022216796875
1737749710126767000,6.32076708984375,-0.1401519775390625,-0.97369384765625,-0.27728271484375
1737749710136834000,6.330833984375,-0.1433868408203125,-0.941375732421875,-0.299346923828125
1737749710146902000,6.340902099609375,-0.1618804931640625,-0.9021453857421875,-0.3031005859375
1737749710156969000,6.350968994140625,-0.192230224609375,-0.87091064453125,-0.284149169921875
1737749710167036200,6.3610361328125,-0.2188262939453125,-0.83807373046875,-0.261383056640625
1737749710177104100,6.371104248046875,-0.2407989501953125,-0.7957000732421875,-0.247894287109375
1737749710187171300,6.38117138671875,-0.27142333984375,-0.7547760009765625,-0.2423248291015625
1737749710197238300,6.39123828125,-0.289031982421875,-0.7346649169921875,-0.2564544677734375
1737749710207305200,6.40130517578125,-0.290313720703125,-0.731292724609375,-0.2747802734375
1737749710217373200,6.411373291015625,-0.2967071533203125,-0.740142822265625,-0.28057861328125
1737749710227440000,6.421440185546875,-0.3095703125,-0.7539520263671875,-0.2813262939453125
1737749710237507000,6.431507080078125,-0.3014373779296875,-0.7664031982421875,-0.2839202880859375
1737749710247575000,6.441574951171875,-0.3114013671875,-0.764068603515625,-0.2873077392578125
1737749710257642000,6.45164208984375,-0.3175201416015625,-0.7477569580078125,-0.28546142578125
1737749710267709000,6.461708984375,-0.3319091796875,-0.7241363525390625,-0.28216552734375
1737749710277777000,6.47177685546875,-0.3444061279296875,-0.6936187744140625,-0.2851409912109375
1737749710287843800,6.48184375,-0.346282958984375,-0.6584320068359375,-0.2856292724609375
1737749710297911000,6.4919111328125,-0.331024169921875,-0.62664794921875,-0.2674407958984375
1737749710307979000,6.50197900390625,-0.3132781982421875,-0.6024017333984375,-0.2305755615234375
1737749710318046200,6.512046142578125,-0.3026275634765625,-0.5863494873046875,-0.187896728515625
1737749710328113200,6.522113037109375,-0.2824554443359375,-0.5691986083984375,-0.1525726318359375
1737749710338180000,6.53218017578125,-0.2702484130859375,-0.5461578369140625,-0.1282806396484375
1737749710348248000,6.542248046875,-0.2765045166015625,-0.5187225341796875,-0.11279296875
1737749710358315000,6.55231494140625,-0.3031463623046875,-0.4868621826171875,-0.1009674072265625
1737749710368382000,6.5623818359375,-0.3316192626953125,-0.46295166015625,-0.084930419921875
1737749710378450000,6.572449951171875,-0.35137939453125,-0.4572296142578125,-0.0597381591796875
1737749710388517000,6.58251708984375,-0.3688507080078125,-0.4672088623046875,-0.024322509765625
1737749710398584000,6.592583984375,-0.3897705078125,-0.4907073974609375,0.00518798828125
1737749710408652000,6.602652099609375,-0.40264892578125,-0.511474609375,0.0223846435546875
1737749710418719000,6.612718994140625,-0.40966796875,-0.5174560546875,0.0397796630859375
1737749710428786000,6.622785888671875,-0.4331207275390625,-0.5257720947265625,0.0580291748046875
1737749710438853000,6.63285302734375,-0.467071533203125,-0.5453948974609375,0.06097412109375
1737749710448921000,6.642921142578125,-0.4984893798828125,-0.5590667724609375,0.046844482421875
1737749710458988000,6.652988037109375,-0.52978515625,-0.554718017578125,0.019683837890625
1737749710469055000,6.663054931640625,-0.5572967529296875,-0.555084228515625,-0.0104217529296875
1737749710479123200,6.673123291015625,-0.54742431640625,-0.5975799560546875,-0.02294921875
1737749710489190100,6.683190185546875,-0.4743499755859375,-0.686004638671875,0.0171051025390625
1737749710499257000,6.693257080078125,-0.421295166015625,-0.7772216796875,0.14215087890625
1737749710509325000,6.703324951171875,-0.4762115478515625,-0.81915283203125,0.291046142578125
1737749710519392000,6.71339208984375,-0.6007843017578125,-0.7788848876953125,0.397857666015625
1737749710529459000,6.723458984375,-0.694488525390625,-0.6785888671875,0.48541259765625
1737749710539527000,6.73352685546875,-0.726776123046875,-0.5695648193359375,0.5416259765625
1737749710549593900,6.74359375,-0.7411041259765625,-0.496185302734375,0.5474700927734375
1737749710559660800,6.753660888671875,-0.76446533203125,-0.482025146484375,0.53369140625
1737749710569728300,6.763728271484375,-0.77032470703125,-0.521148681640625,0.5424652099609375
1737749710579796000,6.7737958984375,-0.76666259765625,-0.595916748046875,0.555694580078125
1737749710589863200,6.78386328125,-0.7816009521484375,-0.6843109130859375,0.5473480224609375
1737749710599930000,6.79393017578125,-0.79461669921875,-0.752227783203125,0.52044677734375
1737749710609998000,6.803998046875,-0.7932281494140625,-0.78515625,0.505340576171875
1737749710620065000,6.81406494140625,-0.8089752197265625,-0.7872467041015625,0.497528076171875
1737749710630132000,6.824132080078125,-0.8447113037109375,-0.7634429931640625,0.502105712890625
1737749710640200200,6.8342001953125,-0.8727569580078125,-0.7097930908203125,0.53375244140625
1737749710650267100,6.84426708984375,-0.900421142578125,-0.638702392578125,0.589447021484375
1737749710660334000,6.854333984375,-0.933837890625,-0.5810089111328125,0.6556854248046875
1737749710670402000,6.864402099609375,-0.9581756591796875,-0.5614776611328125,0.717620849609375
1737749710680469000,6.874468994140625,-0.9741363525390625,-0.5920562744140625,0.7615509033203125
1737749710690536000,6.884535888671875,-0.98565673828125,-0.6612396240234375,0.7810821533203125
1737749710700603100,6.89460302734375,-0.995849609375,-0.7266693115234375,0.7776336669921875
1737749710710670800,6.9046708984375,-0.994171142578125,-0.759429931640625,0.77203369140625
1737749710720738000,6.914738037109375,-0.979339599609375,-0.764434814453125,0.7502593994140625
1737749710730805000,6.924804931640625,-0.952239990234375,-0.7501373291015625,0.729644775390625
1737749710740873200,6.934873291015625,-0.9222412109375,-0.728271484375,0.7079925537109375
1737749710750940200,6.944940185546875,-0.89990234375,-0.6900787353515625,0.691436767578125
1737749710761007000,6.955007080078125,-0.888824462890625,-0.6442413330078125,0.699066162109375
1737749710771075000,6.965074951171875,-0.8922576904296875,-0.5945587158203125,0.73565673828125
1737749710781142000,6.97514208984375,-0.8915863037109375,-0.536834716796875,0.773834228515625
1737749710791209000,6.985208984375,-0.893524169921875,-0.477386474609375,0.7868499755859375
1737749710801277000,6.99527685546875,-0.896453857421875,-0.426513671875,0.7720489501953125
1737749710811344100,7.00534423828125,-0.8858489990234375,-0.407012939453125,0.743743896484375
1737749710821411000,7.0154111328125,-0.863494873046875,-0.421661376953125,0.706024169921875
1737749710831478000,7.02547802734375,-0.8436431884765625,-0.448516845703125,0.667938232421875
1737749710841546000,7.0355458984375,-0.8266448974609375,-0.4682769775390625,0.6234893798828125
1737749710851613000,7.045613037109375,-0.823486328125,-0.44940185546875,0.573333740234375
1737749710861680000,7.05568017578125,-0.8254547119140625,-0.398040771484375,0.5431671142578125
1737749710871748000,7.065748046875,-0.827056884765625,-0.343994140625,0.5410003662109375
1737749710881815000,7.07581494140625,-0.84356689453125,-0.3077239990234375,0.5450439453125
1737749710891882000,7.085882080078125,-0.8647613525390625,-0.28460693359375,0.5384063720703125
1737749710901950200,7.0959501953125,-0.874786376953125,-0.282073974609375,0.5307464599609375
1737749710912017200,7.10601708984375,-0.87005615234375,-0.302581787109375,0.524261474609375
1737749710922084000,7.116083984375,-0.8688507080078125,-0.3280029296875,0.5117340087890625
1737749710932151000,7.126151123046875,-0.869110107421875,-0.3498382568359375,0.4977569580078125
1737749710942219000,7.136218994140625,-0.8651885986328125,-0.3724517822265625,0.4967041015625
1737749710952286000,7.146285888671875,-0.8621978759765625,-0.3966217041015625,0.5145416259765625
1737749710962353000,7.156352783203125,-0.8576202392578125,-0.41253662109375,0.53216552734375
1737749710972420900,7.1664208984375,-0.85418701171875,-0.40496826171875,0.546905517578125
1737749710982487800,7.17648779296875,-0.850372314453125,-0.3673858642578125,0.55572509765625
1737749710992555300,7.18655517578125,-0.8596343994140625,-0.3094329833984375,0.54876708984375
1737749711002623000,7.196623046875,-0.8749237060546875,-0.2547149658203125,0.5384674072265625
1737749711012690200,7.206690185546875,-0.8802032470703125,-0.218231201171875,0.545989990234375
1737749711022757000,7.216757080078125,-0.8823699951171875,-0.2255859375,0.55694580078125
1737749711032825000,7.2268251953125,-0.8831024169921875,-0.2899627685546875,0.553680419921875
1737749711042892000,7.23689208984375,-0.8693389892578125,-0.3571929931640625,0.54425048828125
1737749711052959000,7.246958984375,-0.862823486328125,-0.3895721435546875,0.5313873291015625
1737749711063026000,7.25702587890625,-0.8713226318359375,-0.38543701171875,0.5161285400390625
1737749711073094100,7.26709423828125,-0.8831939697265625,-0.361602783203125,0.5030364990234375
1737749711083161000,7.2771611328125,-0.8821258544921875,-0.359832763671875,0.495269775390625
1737749711093228000,7.28722802734375,-0.877410888671875,-0.370941162109375,0.4819488525390625
1737749711103296000,7.2972958984375,-0.888671875,-0.376983642578125,0.4686126708984375
1737749711113363000,7.307363037109375,-0.89239501953125,-0.3786163330078125,0.4593048095703125
1737749711123430000,7.317429931640625,-0.8909912109375,-0.36279296875,0.445831298828125
1737749711133497900,7.327497802734375,-0.9105682373046875,-0.3543701171875,0.4181365966796875
1737749711143565000,7.33756494140625,-0.926788330078125,-0.3577728271484375,0.375
1737749711153632000,7.347632080078125,-0.93963623046875,-0.36199951171875,0.33343505859375
1737749711163700200,7.3577001953125,-0.958465576171875,-0.3713836669921875,0.29864501953125
1737749711173767200,7.36776708984375,-0.966064453125,-0.3863677978515625,0.268341064453125
1737749711183834000,7.377834228515625,-0.9849395751953125,-0.4039764404296875,0.2351837158203125
1737749711193901000,7.387901123046875,-0.9997100830078125,-0.432525634765625,0.1896514892578125
1737749711203969000,7.397968994140625,-1.003753662109375,-0.4542388916015625,0.13946533203125
1737749711214036000,7.408035888671875,-1.0136871337890625,-0.4639892578125,0.0912017822265625
1737749711224103000,7.41810302734375,-1.0155792236328125,-0.453338623046875,0.0499725341796875
1737749711234175200,7.42817529296875,-1.014251708984375,-0.4242401123046875,0.023223876953125
1737749711244242200,7.4382421875,-1.0023193359375,-0.401153564453125,0.005584716796875
1737749711254309000,7.44830908203125,-0.9915008544921875,-0.3899078369140625,0.0015869140625
1737749711264377000,7.458377197265625,-0.9760284423828125,-0.387908935546875,0.0184173583984375
1737749711274444000,7.468444091796875,-0.962188720703125,-0.3905029296875,0.054107666015625
1737749711284511000,7.478510986328125,-0.9609832763671875,-0.3794403076171875,0.098602294921875
1737749711294578400,7.488578369140625,-0.9700164794921875,-0.36083984375,0.141754150390625
1737749711304646100,7.498646240234375,-0.9726715087890625,-0.3625640869140625,0.17120361328125
1737749711314713300,7.50871337890625,-0.9803619384765625,-0.3835296630859375,0.1884002685546875
1737749711324780300,7.5187802734375,-0.9947052001953125,-0.4010162353515625,0.1990966796875
1737749711334848300,7.52884814453125,-1.0057220458984375,-0.4001007080078125,0.1981353759765625
1737749711344915200,7.538915283203125,-1.00921630859375,-0.3829803466796875,0.1796417236328125
1737749711354982100,7.548982177734375,-0.996856689453125,-0.360443115234375,0.1423797607421875
1737749711365050400,7.55905029296875,-0.96673583984375,-0.3484344482421875,0.0944061279296875
1737749711375117300,7.569117431640625,-0.9404754638671875,-0.3934173583984375,0.0257110595703125
1737749711385184300,7.579184326171875,-0.9536895751953125,-0.515594482421875,-0.07916259765625
1737749711395252200,7.589252197265625,-0.9863433837890625,-0.640960693359375,-0.1976318359375
1737749711405319200,7.599319091796875,-0.993621826171875,-0.6640167236328125,-0.28778076171875
1737749711415386000,7.60938623046875,-0.9950714111328125,-0.5374298095703125,-0.3325958251953125
1737749711425453300,7.619453369140625,-1.0084075927734375,-0.3622894287109375,-0.321746826171875
1737749711435521000,7.62952099609375,-1.0214385986328125,-0.2463226318359375,-0.2694854736328125
1737749711445588200,7.639588134765625,-1.02459716796875,-0.2161102294921875,-0.182098388671875
1737749711455655200,7.6496552734375,-1.0079345703125,-0.264190673828125,-0.068084716796875
1737749711465723400,7.659723388671875,-0.983795166015625,-0.339996337890625,0.01837158203125
1737749711475790300,7.669790283203125,-0.9664459228515625,-0.3957061767578125,0.05303955078125
1737749711485857300,7.679857177734375,-0.9508209228515625,-0.421417236328125,0.063873291015625
1737749711495925200,7.68992529296875,-0.9475555419921875,-0.424957275390625,0.068878173828125
1737749711505992200,7.6999921875,-0.93890380859375,-0.414642333984375,0.0614471435546875
1737749711516059100,7.71005908203125,-0.9164886474609375,-0.4018707275390625,0.0310821533203125
1737749711526126000,7.7201259765625,-0.888702392578125,-0.390167236328125,-0.02789306640625
1737749711536194000,7.730194091796875,-0.8810577392578125,-0.37615966796875,-0.10491943359375
1737749711546261200,7.74026123046875,-0.8802337646484375,-0.3673553466796875,-0.17724609375
1737749711556328200,7.750328125,-0.8681640625,-0.3728485107421875,-0.24139404296875
1737749711566396200,7.760396240234375,-0.857421875,-0.38916015625,-0.29595947265625
1737749711576463000,7.770463134765625,-0.848480224609375,-0.4085693359375,-0.3378753662109375
1737749711586530300,7.7805302734375,-0.8480072021484375,-0.4183502197265625,-0.3707427978515625
1737749711596598300,7.790598388671875,-0.8571929931640625,-0.3966827392578125,-0.3895721435546875
1737749711606665200,7.800665283203125,-0.8705291748046875,-0.3533782958984375,-0.3892669677734375
1737749711616732200,7.810732177734375,-0.8756256103515625,-0.3090972900390625,-0.3830413818359375
1737749711626799000,7.820799072265625,-0.8826446533203125,-0.2770538330078125,-0.3847808837890625
1737749711636867300,7.830867431640625,-0.892852783203125,-0.2576904296875,-0.4039154052734375
1737749711646934300,7.840934326171875,-0.896240234375,-0.251922607421875,-0.4307861328125
1737749711657001200,7.851001220703125,-0.8829193115234375,-0.267608642578125,-0.4569854736328125
1737749711667069200,7.861069091796875,-0.8756103515625,-0.303497314453125,-0.479217529296875
1737749711677136100,7.87113623046875,-0.896087646484375,-0.3481292724609375,-0.4812469482421875
1737749711687203000,7.881203125,-0.9169464111328125,-0.3961029052734375,-0.4530181884765625
1737749711697271000,7.89127099609375,-0.9229583740234375,-0.4459991455078125,-0.40228271484375
1737749711707338000,7.901337890625,-0.93682861328125,-0.480316162109375,-0.3541259765625
1737749711717405200,7.9114052734375,-0.943206787109375,-0.496124267578125,-0.31903076171875
1737749711727472400,7.921472412109375,-0.934600830078125,-0.4782867431640625,-0.2938995361328125
1737749711737540400,7.931540283203125,-0.92822265625,-0.4327850341796875,-0.28594970703125
1737749711747607300,7.941607177734375,-0.905670166015625,-0.39312744140625,-0.2944488525390625
1737749711757674200,7.95167431640625,-0.871551513671875,-0.361602783203125,-0.3016815185546875
1737749711767742200,7.9617421875,-0.8308868408203125,-0.343170166015625,-0.31671142578125
1737749711777809200,7.97180908203125,-0.784210205078125,-0.318115234375,-0.3463592529296875
1737749711787876000,7.9818759765625,-0.7524261474609375,-0.266021728515625,-0.3748931884765625
1737749711797944300,7.9919443359375,-0.724090576171875,-0.2105712890625,-0.38812255859375
1737749711808011300,8.00201123046875,-0.67462158203125,-0.1534271240234375,-0.399871826171875
1737749711818078200,8.012078125,-0.636932373046875,-0.0913238525390625,-0.4083709716796875
1737749711828145200,8.022145263671876,-0.6035308837890625,-0.0382843017578125,-0.4228973388671875
1737749711838213000,8.032213134765625,-0.5711212158203125,0.0108184814453125,-0.451080322265625
1737749711848280000,8.042280029296874,-0.5649871826171875,0.0407562255859375,-0.476226806640625
1737749711858347300,8.05234716796875,-0.55084228515625,0.02130126953125,-0.50592041015625
1737749711868415200,8.062415283203125,-0.5429229736328125,-0.0223541259765625,-0.5695953369140625
1737749711878482200,8.072482177734376,-0.5386810302734375,-0.0688934326171875,-0.6600341796875
1737749711888549000,8.082549072265625,-0.5244140625,-0.1173095703125,-0.75787353515625
1737749711898617300,8.092617431640624,-0.512542724609375,-0.1549224853515625,-0.8539886474609375
1737749711908684300,8.102684326171875,-0.5253753662109375,-0.1784515380859375,-0.95263671875
1737749711918751200,8.112751220703124,-0.54034423828125,-0.1865386962890625,-1.041748046875
1737749711928818200,8.122818115234375,-0.5439453125,-0.188262939453125,-1.0775909423828125
1737749711938886100,8.13288623046875,-0.5348663330078125,-0.1761016845703125,-1.04290771484375
1737749711948953000,8.142953125,-0.52264404296875,-0.139739990234375,-0.9733123779296875
1737749711959020000,8.15302001953125,-0.5032501220703125,-0.1090087890625,-0.8974151611328125
1737749711969088300,8.163088134765625,-0.47052001953125,-0.09649658203125,-0.820556640625
1737749711979155200,8.1731552734375,-0.465728759765625,-0.1006927490234375,-0.7256317138671875
1737749711989222400,8.183222412109375,-0.4793243408203125,-0.096832275390625,-0.6053619384765625
1737749711999290000,8.1932900390625,-0.4901123046875,-0.088714599609375,-0.48779296875
1737749712009357300,8.203357421875,-0.512420654296875,-0.0974273681640625,-0.38616943359375
1737749712019424300,8.21342431640625,-0.521575927734375,-0.140594482421875,-0.2900848388671875
1737749712029491200,8.2234912109375,-0.5245513916015625,-0.198211669921875,-0.20037841796875
1737749712039559200,8.23355908203125,-0.5514068603515625,-0.263275146484375,-0.135009765625
1737749712049626000,8.243626220703124,-0.5599212646484375,-0.343902587890625,-0.1047515869140625
1737749712059693000,8.253693115234375,-0.5604248046875,-0.412567138671875,-0.1234588623046875
1737749712069761300,8.26376123046875,-0.562103271484375,-0.476470947265625,-0.174346923828125
1737749712079828200,8.273828125,-0.5529327392578125,-0.537689208984375,-0.2526397705078125
1737749712089895200,8.283895263671875,-0.5567474365234375,-0.57391357421875,-0.3281402587890625
1737749712099963100,8.293963134765624,-0.560089111328125,-0.590576171875,-0.3788909912109375
1737749712110030000,8.304030029296875,-0.549896240234375,-0.60150146484375,-0.413482666015625
1737749712120097300,8.31409716796875,-0.5493927001953125,-0.6281585693359375,-0.432769775390625
1737749712130164200,8.324164306640625,-0.5446929931640625,-0.723968505859375,-0.4390106201171875
1737749712140232200,8.334232177734375,-0.5347442626953125,-0.8657073974609375,-0.4320831298828125
1737749712150299400,8.34429931640625,-0.5461273193359375,-0.9678955078125,-0.4155731201171875
1737749712160366300,8.354366455078125,-0.5745391845703125,-0.9773406982421875,-0.39752197265625
1737749712170434300,8.364434326171875,-0.60162353515625,-0.88079833984375,-0.37744140625
1737749712180501200,8.374501220703126,-0.6163177490234375,-0.7452239990234375,-0.367218017578125
1737749712190568200,8.384568115234375,-0.6142578125,-0.6679840087890625,-0.3823089599609375
1737749712200636200,8.39463623046875,-0.5840606689453125,-0.662200927734375,-0.400634765625
1737749712210703000,8.404703125,-0.545867919921875,-0.708404541015625,-0.385406494140625
1737749712220770000,8.41477001953125,-0.5209808349609375,-0.7892913818359375,-0.3472442626953125
1737749712230837500,8.42483740234375,-0.5126800537109375,-0.89208984375,-0.3152618408203125
1737749712240905700,8.43490576171875,-0.5106201171875,-0.969635009765625,-0.286376953125
1737749712250972700,8.44497265625,-0.51617431640625,-0.9712066650390625,-0.2649993896484375
1737749712261039600,8.45503955078125,-0.5182647705078125,-0.9423828125,-0.2596282958984375
1737749712271107600,8.465107666015625,-0.51715087890625,-0.9123992919921875,-0.285675048828125
1737749712281174800,8.4751748046875,-0.5483551025390625,-0.870819091796875,-0.336212158203125
1737749712291241700,8.48524169921875,-0.578857421875,-0.8319091796875,-0.3878936767578125
1737749712301308700,8.49530859375,-0.5776519775390625,-0.7989959716796875,-0.412506103515625
1737749712311377000,8.505376953125,-0.5560150146484375,-0.7941131591796875,-0.411895751953125
1737749712321443800,8.51544384765625,-0.5287322998046875,-0.8400726318359375,-0.4105987548828125
1737749712331510800,8.5255107421875,-0.4985504150390625,-0.9161224365234375,-0.4109649658203125
1737749712341578800,8.535578857421875,-0.4796905517578125,-0.97698974609375,-0.40240478515625
1737749712351645700,8.545645751953124,-0.4756011962890625,-1.013916015625,-0.3760833740234375
1737749712361712600,8.555712646484375,-0.4637298583984375,-1.02716064453125,-0.34912109375
1737749712371780600,8.565780517578125,-0.4508056640625,-1.0224456787109375,-0.3303070068359375
1737749712381847600,8.57584765625,-0.4356231689453125,-1.02532958984375,-0.3195953369140625
1737749712391914500,8.58591455078125,-0.4392547607421875,-1.0283203125,-0.3101654052734375
1737749712401981700,8.595981689453126,-0.438201904296875,-1.0088348388671875,-0.2963104248046875
1737749712412049700,8.606049560546875,-0.4158477783203125,-0.965118408203125,-0.2813873291015625
1737749712422116900,8.616116943359375,-0.3956146240234375,-0.9147491455078125,-0.2644195556640625
1737749712432183800,8.626183837890625,-0.3888702392578125,-0.8914337158203125,-0.2616424560546875
1737749712442251800,8.636251708984375,-0.35906982421875,-0.905670166015625,-0.2736663818359375
1737749712452318700,8.646318603515626,-0.3369140625,-0.928680419921875,-0.2880401611328125
1737749712462385700,8.6563857421875,-0.3288116455078125,-0.949310302734375,-0.2974700927734375
1737749712472452600,8.66645263671875,-0.3074798583984375,-0.94921875,-0.3035888671875
1737749712482520600,8.6765205078125,-0.2859954833984375,-0.92169189453125,-0.2895965576171875
1737749712492587800,8.686587890625,-0.29779052734375,-0.8921356201171875,-0.2558746337890625
1737749712502654700,8.69665478515625,-0.2760772705078125,-0.875152587890625,-0.249114990234375
1737749712512722700,8.70672265625,-0.2226409912109375,-0.8837432861328125,-0.2803802490234375
1737749712522789600,8.71678955078125,-0.1398468017578125,-0.8884735107421875,-0.3231353759765625
1737749712532856600,8.726856689453125,-0.175506591796875,-0.9202880859375,-0.348724365234375
1737749712542924500,8.736924560546875,-0.0623931884765625,-0.966217041015625,-0.3789215087890625
1737749712552991700,8.74699169921875,-0.1649627685546875,-0.9791259765625,-0.3851470947265625
1737749712563058700,8.75705859375,-0.0597991943359375,-0.9775238037109375,-0.38055419921875
1737749712573125600,8.767125732421874,0.0546417236328125,-0.914306640625,-0.379608154296875
1737749712583193900,8.77719384765625,-0.1730499267578125,-0.92730712890625,-0.4241485595703125
1737749712593260800,8.7872607421875,-0.147857666015625,-1.047332763671875,-0.4896240234375
1737749712603327700,8.79732763671875,-0.146331787109375,-1.1281890869140625,-0.476776123046875
1737749712613395700,8.807395751953125,-0.2529144287109375,-1.1663818359375,-0.4232940673828125
1737749712623462700,8.817462646484374,-0.4616241455078125,-1.2449188232421875,-0.4170379638671875
1737749712633529600,8.827529541015625,-0.5391845703125,-1.3423004150390625,-0.448974609375
1737749712643597600,8.83759765625,-0.3337554931640625,-1.2987518310546875,-0.4165191650390625
1737749712653664500,8.84766455078125,-0.04296875,-1.1126251220703125,-0.3041839599609375
1737749712663731700,8.857731689453125,0.1328277587890625,-1.014678955078125,-0.250244140625
1737749712673799000,8.867798828125,0.169403076171875,-1.089813232421875,-0.2731475830078125
1737749712683866600,8.87786669921875,0.1486968994140625,-1.20074462890625,-0.2416839599609375
1737749712693933800,8.887933837890625,-0.072509765625,-1.2378082275390625,-0.1090240478515625
1737749712704000800,8.898000732421876,-0.1823577880859375,-1.198638916015625,0.0534820556640625
1737749712714068700,8.90806884765625,-0.2617645263671875,-1.1385498046875,0.095123291015625
1737749712724135700,8.9181357421875,-0.24249267578125,-1.097137451171875,-0.0545806884765625
1737749712734202600,8.92820263671875,-0.1378631591796875,-1.066375732421875,-0.2270965576171875
1737749712744270800,8.938270751953125,-0.047027587890625,-1.0144195556640625,-0.318634033203125
1737749712754337800,8.948337890625,-0.073883056640625,-0.945526123046875,-0.3912811279296875
1737749712764404700,8.95840478515625,-0.025848388671875,-0.8393096923828125,-0.4877777099609375
1737749712774471700,8.9684716796875,0.1240081787109375,-0.655548095703125,-0.527679443359375
1737749712784539600,8.97853955078125,0.2958526611328125,-0.4644012451171875,-0.466064453125
1737749712794606600,8.988606689453125,0.5483245849609375,-0.3563232421875,-0.37091064453125
1737749712804673800,8.998673828125,0.6550750732421875,-0.3476104736328125,-0.2191619873046875
1737749712814741500,9.008741455078125,0.446380615234375,-0.585052490234375,0.1465301513671875
1737749712824808700,9.01880859375,-0.041015625,-1.0883636474609375,0.6971588134765625
1737749712834875600,9.028875732421875,-0.5081634521484375,-1.57672119140625,0.973907470703125
1737749712844944000,9.03894384765625,-0.5994415283203125,-1.5551910400390625,0.7343292236328125
1737749712855010800,9.0490107421875,-0.296875,-0.9486236572265625,0.24169921875
1737749712865077800,9.059077880859375,-0.0858001708984375,-0.5322418212890625,-0.106597900390625
1737749712875144700,9.069144775390624,-0.0804290771484375,-0.7421875,-0.2213134765625
1737749712885212700,9.079212646484375,-0.0754852294921875,-1.2868804931640625,-0.209625244140625
1737749712895279600,9.089279541015625,-0.08135986328125,-1.533294677734375,-0.2939910888671875
1737749712905346600,9.0993466796875,-0.0972900390625,-1.274810791015625,-0.4786529541015625
1737749712915414800,9.109414794921875,-0.09637451171875,-0.900726318359375,-0.62896728515625
1737749712925481700,9.119481689453124,-0.05218505859375,-0.6776275634765625,-0.6717376708984375
1737749712935548700,9.129548583984375,-0.059967041015625,-0.6237945556640625,-0.6642608642578125
1737749712945616600,9.13961669921875,-0.1031494140625,-0.75115966796875,-0.6934051513671875
1737749712955683600,9.14968359375,-0.151519775390625,-0.936981201171875,-0.6907958984375
1737749712965750800,9.159750732421875,-0.184722900390625,-1.0387115478515625,-0.60693359375
1737749712975817700,9.169817626953124,-0.18896484375,-1.051422119140625,-0.48291015625
1737749712985885700,9.1798857421875,-0.1999053955078125,-1.0418243408203125,-0.374267578125
1737749712995952600,9.18995263671875,-0.2223358154296875,-1.06146240234375,-0.3081512451171875
1737749713006019600,9.20001953125,-0.2423553466796875,-1.0973358154296875,-0.2632904052734375
1737749713016087800,9.210087890625,-0.2375640869140625,-1.1005859375,-0.2196197509765625
1737749713026154800,9.22015478515625,-0.2086639404296875,-1.051239013671875,-0.197509765625
1737749713036221700,9.2302216796875,-0.147491455078125,-0.9797515869140625,-0.2137603759765625
1737749713046288600,9.24028857421875,-0.1251068115234375,-0.914337158203125,-0.239776611328125
1737749713056356600,9.250356689453126,-0.134552001953125,-0.8864898681640625,-0.2747039794921875
1737749713066423600,9.260423583984375,-0.1290283203125,-0.8837738037109375,-0.29345703125
1737749713076490800,9.27049072265625,-0.0756683349609375,-0.8767547607421875,-0.2895660400390625
1737749713086558500,9.280558349609375,-0.061370849609375,-0.8443756103515625,-0.264678955078125
1737749713096626000,9.2906259765625,-0.07421875,-0.8302459716796875,-0.2227630615234375
1737749713106692900,9.30069287109375,-0.10040283203125,-0.859771728515625,-0.1720428466796875
1737749713116759800,9.310759765625,-0.114227294921875,-0.9060821533203125,-0.1453399658203125
1737749713126827800,9.320827880859374,-0.1150360107421875,-0.93548583984375,-0.152435302734375
1737749713136894700,9.330894775390625,-0.0908050537109375,-0.9432220458984375,-0.1712188720703125
1737749713146961700,9.340961669921874,-0.0289459228515625,-0.9212188720703125,-0.1855926513671875
1737749713157029600,9.351029541015626,0.05291748046875,-0.8862762451171875,-0.2127685546875
1737749713167096600,9.3610966796875,0.097076416015625,-0.8627166748046875,-0.266632080078125
1737749713177163500,9.37116357421875,0.057952880859375,-0.8643646240234375,-0.340484619140625
1737749713187231700,9.381231689453125,-0.044769287109375,-0.9239501953125,-0.4380950927734375
1737749713197298700,9.391298583984375,-0.1392974853515625,-1.00927734375,-0.5565185546875
1737749713207365600,9.40136572265625,-0.23724365234375,-1.057891845703125,-0.64093017578125
1737749713217432800,9.411432861328125,-0.3091583251953125,-1.0522003173828125,-0.6157379150390625
1737749713227500800,9.421500732421874,-0.213470458984375,-0.9889068603515625,-0.4895477294921875
1737749713237564000,9.43156396484375,-0.0601806640625,-0.88067626953125,-0.3870849609375
1737749713247630800,9.441630859375,0.0356597900390625,-0.823822021484375,-0.39691162109375
1737749713257699000,9.451698974609375,0.057891845703125,-0.879974365234375,-0.4349365234375
1737749713267766000,9.46176611328125,0.0500946044921875,-1.0095062255859375,-0.383514404296875
1737749713277833000,9.4718330078125,0.003326416015625,-1.1103668212890625,-0.2832794189453125
1737749713287900000,9.48189990234375,-0.05267333984375,-1.1204833984375,-0.2340850830078125
1737749713297967900,9.4919677734375,-0.1100616455078125,-1.0332183837890625,-0.2558746337890625
1737749713308034800,9.502034912109375,-0.127166748046875,-0.9268646240234375,-0.2989501953125
1737749713318101800,9.512101806640626,-0.157440185546875,-0.87652587890625,-0.3187255859375
1737749713328170000,9.522169921875,-0.211944580078125,-0.8922882080078125,-0.313262939453125
1737749713338237000,9.53223681640625,-0.183319091796875,-0.92315673828125,-0.31085205078125
1737749713348304100,9.54230419921875,-0.0885009765625,-0.892120361328125,-0.3213348388671875
1737749713358372000,9.5523720703125,0.0003662109375,-0.829925537109375,-0.3736114501953125
1737749713368439000,9.56243896484375,0.0674285888671875,-0.810943603515625,-0.45794677734375
1737749713378506000,9.572506103515625,0.0989227294921875,-0.8201141357421875,-0.520660400390625
1737749713388573000,9.582572998046874,0.106903076171875,-0.830047607421875,-0.5361480712890625
1737749713398641000,9.592640869140626,0.0936126708984375,-0.8430938720703125,-0.5262298583984375
1737749713408707800,9.602707763671875,0.0753936767578125,-0.867706298828125,-0.5255584716796875
1737749713418774800,9.61277490234375,0.0330352783203125,-0.87811279296875,-0.535552978515625
1737749713428843000,9.622843017578125,0.011688232421875,-0.8564910888671875,-0.5423736572265625
1737749713438910000,9.632909912109374,0.04949951171875,-0.8052978515625,-0.51727294921875
1737749713448977000,9.642976806640625,0.0883026123046875,-0.732879638671875,-0.4681549072265625
1737749713459044000,9.653044189453125,0.0786285400390625,-0.669036865234375,-0.436431884765625
1737749713469111800,9.66311181640625,-0.0287017822265625,-0.6564178466796875,-0.4538726806640625
1737749713479179000,9.673178955078125,-0.096588134765625,-0.7232208251953125,-0.5357666015625
1737749713489246000,9.683245849609374,-0.0460968017578125,-0.7830047607421875,-0.6380767822265625
1737749713499314000,9.69331396484375,0.051544189453125,-0.76263427734375,-0.672515869140625
1737749713509381000,9.703381103515625,0.16595458984375,-0.706024169921875,-0.6732940673828125
1737749713519448000,9.713447998046876,0.264892578125,-0.678863525390625,-0.6721038818359375
1737749713529515000,9.723514892578125,0.2902374267578125,-0.6734466552734375,-0.6479034423828125
1737749713539583000,9.7335830078125,0.151092529296875,-0.719024658203125,-0.663665771484375
1737749713549650000,9.74364990234375,0.1544036865234375,-0.8006439208984375,-0.72930908203125
1737749713559716900,9.753716796875,0.101043701171875,-0.8253326416015625,-0.6992950439453125
1737749713569784800,9.763784912109376,0.118743896484375,-0.787353515625,-0.595672607421875
1737749713579851800,9.773851806640625,0.079010009765625,-0.7730712890625,-0.465423583984375
1737749713589919000,9.7839189453125,0.0904083251953125,-0.830169677734375,-0.36767578125
1737749713599987000,9.793987060546876,0.09320068359375,-0.905670166015625,-0.34124755859375
1737749713610054100,9.80405419921875,0.070770263671875,-0.94671630859375,-0.3750762939453125
1737749713620121000,9.81412109375,0.1027984619140625,-0.903564453125,-0.4224090576171875
1737749713630188000,9.82418798828125,0.1299896240234375,-0.8075714111328125,-0.4282989501953125
1737749713640256000,9.834256103515624,0.1475830078125,-0.7467041015625,-0.3699951171875
1737749713650323000,9.844322998046875,0.1246337890625,-0.7526702880859375,-0.29876708984375
1737749713660390000,9.854389892578125,0.0659027099609375,-0.81793212890625,-0.261474609375
1737749713670457900,9.864457763671876,0.023590087890625,-0.905914306640625,-0.2637939453125
1737749713680525000,9.874525146484375,0.0205841064453125,-0.9617156982421875,-0.2955322265625
1737749713690592000,9.884592041015624,0.0262298583984375,-0.98089599609375,-0.3233642578125
1737749713700659000,9.894658935546875,0.048431396484375,-0.9802703857421875,-0.3622894287109375
1737749713710727000,9.904726806640625,0.066375732421875,-0.976226806640625,-0.3977203369140625
1737749713720793900,9.9147939453125,0.1083221435546875,-0.9789886474609375,-0.418609619140625
1737749713730861000,9.924861083984375,0.07373046875,-0.998291015625,-0.430633544921875
1737749713740928800,9.9349287109375,0.0195465087890625,-1.0279998779296875,-0.4491729736328125
1737749713750996000,9.944995849609375,-0.0175933837890625,-1.0303497314453125,-0.4586944580078125
1737749713761063000,9.95506298828125,-0.0176849365234375,-1.0018310546875,-0.4662933349609375
1737749713771129900,9.9651298828125,-0.0565643310546875,-0.9625396728515625,-0.4409332275390625
1737749713781198000,9.975197998046875,-0.0698699951171875,-0.9134368896484375,-0.3762664794921875
1737749713791265000,9.98526513671875,-0.0839691162109375,-0.8915557861328125,-0.3144683837890625
1737749713801332000,9.99533203125,-0.0448150634765625,-0.9410858154296875,-0.3013916015625
1737749713811400000,10.00539990234375,0.00115966796875,-1.0177764892578125,-0.3207855224609375
1737749713821467000,10.015466796875,0.035858154296875,-1.05450439453125,-0.3572540283203125
1737749713831533800,10.025533935546875,0.058319091796875,-1.0427093505859375,-0.415557861328125
1737749713841601800,10.035601806640624,0.0843353271484375,-0.97100830078125,-0.4475250244140625
1737749713851668700,10.045668701171875,0.0377349853515625,-0.879913330078125,-0.41571044921875
1737749713861736000,10.05573583984375,0.02471923828125,-0.8361053466796875,-0.3696746826171875
1737749713871803100,10.06580322265625,0.0371551513671875,-0.8543243408203125,-0.325408935546875
1737749713881871000,10.07587109375,0.04595947265625,-0.89996337890625,-0.2764739990234375
1737749713891938000,10.08593798828125,0.1038360595703125,-0.9362030029296875,-0.2413177490234375
1737749713902005000,10.0960048828125,0.1862335205078125,-0.97723388671875,-0.205841064453125
1737749713912073000,10.106072998046875,0.2205657958984375,-1.014739990234375,-0.229034423828125
1737749713922140000,10.116139892578126,0.203765869140625,-1.0260162353515625,-0.2589111328125
1737749713932206800,10.126206787109375,0.184326171875,-1.0592041015625,-0.2697906494140625
1737749713942273800,10.136273681640626,0.2101593017578125,-1.1207427978515625,-0.2454986572265625
1737749713952342000,10.146342041015625,0.2106170654296875,-1.1711578369140625,-0.1881866455078125
1737749713962409000,10.156408935546875,0.169769287109375,-1.1519317626953125,-0.149658203125
1737749713972476000,10.166475830078125,0.0843353271484375,-1.0373077392578125,-0.2035064697265625
1737749713982544000,10.1765439453125,-0.014923095703125,-0.9241485595703125,-0.3202972412109375
1737749713992610800,10.18661083984375,-0.0424346923828125,-0.8571319580078125,-0.4524688720703125
1737749714002678000,10.196677978515625,-0.1327056884765625,-0.88470458984375,-0.5930023193359375
1737749714012745000,10.206744873046874,-0.060333251953125,-0.9847564697265625,-0.65643310546875
1737749714022813000,10.21681298828125,0.0963287353515625,-1.06280517578125,-0.6220703125
1737749714032879900,10.2268798828125,0.1605224609375,-1.0955047607421875,-0.6035308837890625
1737749714042947000,10.236947021484376,0.2266387939453125,-1.09259033203125,-0.5383148193359375
1737749714053015000,10.24701513671875,0.2559356689453125,-1.075286865234375,-0.3782806396484375
1737749714063082000,10.25708203125,0.2628021240234375,-1.0325927734375,-0.181243896484375
1737749714073149000,10.26714892578125,0.2189483642578125,-0.9719696044921875,-0.0647735595703125
1737749714083217000,10.277216796875,0.105438232421875,-0.905792236328125,-0.0598907470703125
1737749714093283800,10.287283935546874,0.110565185546875,-0.8495941162109375,-0.0955657958984375
1737749714103350800,10.297350830078125,0.18646240234375,-0.8292083740234375,-0.141754150390625
1737749714113418000,10.30741796875,0.2660369873046875,-0.8584136962890625,-0.1953125
1737749714123486000,10.31748583984375,0.2739105224609375,-0.89935302734375,-0.25341796875
1737749714133553200,10.32755322265625,0.306304931640625,-0.9277191162109375,-0.2444915771484375
1737749714143620000,10.3376201171875,0.29632568359375,-0.9401397705078125,-0.1278533935546875
1737749714153688000,10.34768798828125,0.1579437255859375,-0.9737396240234375,0.0075836181640625
1737749714163755000,10.357755126953125,0.03155517578125,-1.0464935302734375,0.0704193115234375
1737749714173822000,10.367822021484375,-0.015869140625,-1.0785980224609375,0.001983642578125
1737749714183890000,10.377889892578125,0.0059967041015625,-1.0959930419921875,-0.13165283203125
1737749714193956900,10.387956787109376,0.08648681640625,-1.1597137451171875,-0.2986602783203125
1737749714204023800,10.39802392578125,0.20770263671875,-1.2161102294921875,-0.4362945556640625
1737749714214091000,10.408091064453124,0.3200225830078125,-1.197052001953125,-0.43377685546875
1737749714224159000,10.418158935546876,0.3390655517578125,-1.1413726806640625,-0.354095458984375
1737749714234225400,10.428225341796875,0.263641357421875,-1.1085052490234375,-0.2647552490234375
1737749714244292600,10.438292724609376,0.1413116455078125,-1.1313323974609375,-0.16668701171875
1737749714254360300,10.4483603515625,0.045257568359375,-1.1950225830078125,-0.061859130859375
1737749714264427500,10.458427490234374,0.01837158203125,-1.1992950439453125,-0.0660552978515625
1737749714274494700,10.46849462890625,0.0444488525390625,-1.16790771484375,-0.247039794921875
1737749714284561700,10.478561767578125,0.1035308837890625,-1.160125732421875,-0.43292236328125
1737749714294629600,10.488629638671876,0.1847991943359375,-1.1660919189453125,-0.454376220703125
1737749714304696600,10.498696533203125,0.1399688720703125,-1.1252899169921875,-0.3556060791015625
1737749714314763500,10.508763427734374,0.0698394775390625,-1.079437255859375,-0.11676025390625
1737749714324831500,10.51883154296875,0.0762939453125,-1.0649871826171875,0.149139404296875
1737749714334898400,10.5288984375,-0.020721435546875,-1.0794525146484375,0.2850341796875
1737749714344965400,10.53896533203125,-0.139617919921875,-1.1131744384765625,0.3730010986328125
1737749714355033600,10.54903369140625,-0.1153717041015625,-1.132781982421875,0.3510894775390625
1737749714365100500,10.5591005859375,-0.086639404296875,-1.1576385498046875,0.144683837890625
1737749714375167500,10.56916748046875,0.0009002685546875,-1.1570892333984375,-0.05078125
1737749714385234700,10.579234619140625,0.0315093994140625,-1.1191864013671875,-0.1763763427734375
1737749714395302700,10.589302734375,0.0105743408203125,-1.1362762451171875,-0.1883544921875
1737749714405369600,10.59936962890625,-0.0218353271484375,-1.1703338623046875,-0.0598602294921875
1737749714415436500,10.6094365234375,-0.0889892578125,-1.159027099609375,0.1637420654296875
1737749714425504500,10.61950439453125,-0.1408538818359375,-1.169586181640625,0.3037109375
1737749714435571500,10.629571533203125,-0.136749267578125,-1.164794921875,0.2616119384765625
1737749714445638400,10.639638427734376,-0.07855224609375,-1.161041259765625,0.22491455078125
1737749714455706600,10.64970654296875,0.0048675537109375,-1.19268798828125,0.2035064697265625
1737749714465773600,10.659773681640624,0.073394775390625,-1.15863037109375,0.16668701171875
1737749714475840500,10.669840576171875,0.0530548095703125,-1.0730133056640625,0.1578826904296875
1737749714485908500,10.679908447265625,-0.018157958984375,-1.0540008544921875,0.1608428955078125
1737749714495975400,10.689975341796876,-0.0504302978515625,-1.086334228515625,0.1343231201171875
1737749714506042400,10.70004248046875,-0.0988006591796875,-1.1220245361328125,0.12677001953125
1737749714516109600,10.710109619140624,-0.16729736328125,-1.111663818359375,0.1053466796875
1737749714526177500,10.720177490234375,-0.11492919921875,-1.03570556640625,0.0156402587890625
1737749714536244700,10.73024462890625,0.0352325439453125,-0.94622802734375,0.0290374755859375
1737749714546311700,10.740311767578126,0.1295013427734375,-0.942138671875,0.19012451171875
1737749714556379600,10.750379638671875,0.0894012451171875,-0.9821014404296875,0.3229217529296875
1737749714566446600,10.760446533203124,0.0025482177734375,-0.9575347900390625,0.3844757080078125
1737749714576513500,10.770513427734375,-0.1054534912109375,-0.8918914794921875,0.3926849365234375
1737749714586581500,10.78058154296875,-0.197021484375,-0.90155029296875,0.308074951171875
1737749714596648400,10.7906484375,-0.2117919921875,-0.9228668212890625,0.138702392578125
1737749714606715400,10.80071533203125,-0.1602020263671875,-0.9039306640625,0.0756072998046875
1737749714616783600,10.81078369140625,-0.108123779296875,-0.897796630859375,0.1459808349609375
1737749714626850600,10.8208505859375,-0.072479248046875,-0.903717041015625,0.231231689453125
1737749714636917500,10.83091748046875,-0.0216827392578125,-0.894989013671875,0.25732421875
1737749714646985500,10.8409853515625,0.0124359130859375,-0.882171630859375,0.30322265625
1737749714657052400,10.851052490234375,0.025299072265625,-0.9024810791015625,0.3643798828125
1737749714667119600,10.86111962890625,0.0395355224609375,-0.9115447998046875,0.344207763671875
1737749714677187300,10.871187255859375,0.022369384765625,-0.8986358642578125,0.3553009033203125
1737749714687254500,10.881254638671875,-0.0238494873046875,-0.89434814453125,0.3361358642578125
1737749714697321500,10.891321533203126,-0.0869903564453125,-0.933258056640625,0.281463623046875
1737749714707388700,10.901388671875,-0.11676025390625,-0.998992919921875,0.243988037109375
1737749714717456600,10.91145654296875,-0.1291351318359375,-1.06378173828125,0.1721038818359375
1737749714727523600,10.921523681640625,-0.11334228515625,-1.1138458251953125,0.13623046875
1737749714737590500,10.931590576171875,-0.10919189453125,-1.111053466796875,0.158050537109375
1737749714747658500,10.941658447265626,-0.169708251953125,-1.0616302490234375,0.1941986083984375
1737749714757725400,10.951725341796875,-0.2279815673828125,-0.994903564453125,0.208038330078125
1737749714767792400,10.96179248046875,-0.2480621337890625,-0.9832916259765625,0.1766510009765625
1737749714777860600,10.971860595703125,-0.2194061279296875,-1.1398773193359375,0.1790618896484375
1737749714787927600,10.981927490234375,-0.1205902099609375,-1.2559967041015625,0.154632568359375
1737749714797994500,10.991994384765626,-0.129547119140625,-1.0979766845703125,0.1153717041015625
1737749714808062500,11.0020625,-0.20123291015625,-0.9262237548828125,0.1908111572265625
1737749714818129700,11.012129638671874,-0.245147705078125,-0.9101104736328125,0.20635986328125
1737749714828196600,11.022196533203125,-0.31317138671875,-1.0155792236328125,0.16796875
1737749714838263600,11.032263671875,-0.3585357666015625,-1.1106414794921875,0.15283203125
1737749714848331500,11.04233154296875,-0.430755615234375,-1.0753631591796875,0.1006011962890625
1737749714858398500,11.0523984375,-0.50531005859375,-0.9961700439453125,0.0583343505859375
1737749714868465400,11.06246533203125,-0.5072174072265625,-1.0186614990234375,0.0513153076171875
1737749714878533600,11.07253369140625,-0.437286376953125,-1.14825439453125,0.07940673828125
1737749714888600600,11.0826005859375,-0.404632568359375,-1.226776123046875,0.0722198486328125
1737749714898667500,11.09266748046875,-0.3773345947265625,-1.1832122802734375,0.0660552978515625
1737749714908735500,11.102735595703125,-0.38812255859375,-1.0758819580078125,0.0934906005859375
1737749714918802400,11.112802490234374,-0.3900299072265625,-0.9853057861328125,0.1154022216796875
1737749714928869400,11.122869384765625,-0.3187408447265625,-0.9050445556640625,0.0990447998046875
1737749714938937300,11.132937255859375,-0.257781982421875,-0.8575897216796875,0.0653839111328125
1737749714949004300,11.14300439453125,-0.1890411376953125,-0.8575592041015625,0.0330810546875
1737749714959071700,11.15307177734375,-0.1486968994140625,-0.8934783935546875,0.019775390625
1737749714969138700,11.163138671875,-0.110321044921875,-0.96099853515625,0.000732421875
1737749714979206700,11.17320654296875,-0.0998992919921875,-0.9744873046875,-0.0290069580078125
1737749714989273600,11.183273681640625,-0.009063720703125,-0.8569793701171875,-0.0634002685546875
1737749714999340500,11.193340576171876,0.0236053466796875,-0.7028656005859375,-0.1464080810546875
1737749715009408500,11.203408447265625,0.027923583984375,-0.611572265625,-0.28851318359375
1737749715019475500,11.213475341796874,-0.009674072265625,-0.63446044921875,-0.367950439453125
1737749715029542400,11.22354248046875,0.0482177734375,-0.6856842041015625,-0.3773651123046875
1737749715039609300,11.233609375,0.085540771484375,-0.6577911376953125,-0.43646240234375
1737749715049677600,11.243677490234376,0.162689208984375,-0.57220458984375,-0.5495758056640625
1737749715059744500,11.25374462890625,0.24578857421875,-0.5105133056640625,-0.6198577880859375
1737749715069811500,11.2638115234375,0.315887451171875,-0.543243408203125,-0.62652587890625
1737749715079879400,11.27387939453125,0.40216064453125,-0.6410675048828125,-0.584686279296875
1737749715089946600,11.283946533203125,0.4210052490234375,-0.7126312255859375,-0.542938232421875
1737749715100013600,11.294013671875,0.4088897705078125,-0.7541961669921875,-0.5586090087890625
1737749715110080500,11.30408056640625,0.4133148193359375,-0.7938232421875,-0.5728759765625
1737749715120148500,11.3141484375,0.4194793701171875,-0.85498046875,-0.5428619384765625
1737749715130215700,11.324215576171875,0.4261932373046875,-0.93487548828125,-0.5159454345703125
1737749715140282600,11.33428271484375,0.4371337890625,-0.9878387451171875,-0.545654296875
1737749715150350600,11.3443505859375,0.4189910888671875,-0.99334716796875,-0.614471435546875
1737749715160417500,11.35441748046875,0.4005584716796875,-0.984588623046875,-0.6264495849609375
1737749715170484500,11.364484375,0.4084014892578125,-1.0196990966796875,-0.575042724609375
1737749715180551400,11.374551513671875,0.48199462890625,-1.10333251953125,-0.5580596923828125
1737749715190619400,11.384619384765625,0.529083251953125,-1.1772613525390625,-0.5639190673828125
1737749715200686300,11.394686279296875,0.5226593017578125,-1.2305450439453125,-0.556610107421875
1737749715210753500,11.40475341796875,0.53338623046875,-1.253631591796875,-0.52386474609375
1737749715220821500,11.414821533203124,0.56829833984375,-1.2557525634765625,-0.4823150634765625
1737749715230888700,11.424888671875,0.60113525390625,-1.24822998046875,-0.414825439453125
1737749715240959200,11.434959228515625,0.6076507568359375,-1.2519378662109375,-0.3182525634765625
1737749715251027200,11.445027099609375,0.6195068359375,-1.2970733642578125,-0.237060546875
1737749715261094100,11.45509423828125,0.621856689453125,-1.34698486328125,-0.199493408203125
1737749715271161000,11.4651611328125,0.615631103515625,-1.369354248046875,-0.187103271484375
1737749715281228000,11.47522802734375,0.599334716796875,-1.36639404296875,-0.1662750244140625
1737749715291296300,11.485296142578125,0.5695037841796875,-1.3419647216796875,-0.134552001953125
1737749715301363200,11.49536328125,0.5425567626953125,-1.3141021728515625,-0.109588623046875
1737749715311430100,11.50543017578125,0.5173492431640625,-1.27239990234375,-0.0909423828125
1737749715321498000,11.515498046875,0.5362091064453125,-1.2256317138671875,-0.0488128662109375
1737749715331565000,11.52556494140625,0.5579681396484375,-1.2173309326171875,0.006500244140625
1737749715341632000,11.535632080078125,0.5560455322265625,-1.22161865234375,0.0535125732421875
1737749715351700000,11.545699951171875,0.502044677734375,-1.2194671630859375,0.08673095703125
1737749715361767200,11.55576708984375,0.5019378662109375,-1.2168731689453125,0.0760955810546875
1737749715371834000,11.565834228515625,0.4914093017578125,-1.219696044921875,0.0308380126953125
1737749715381901300,11.5759013671875,0.42840576171875,-1.2295684814453125,0.01666259765625
1737749715391969300,11.58596923828125,0.40008544921875,-1.243804931640625,0.0205535888671875
1737749715402036200,11.5960361328125,0.34356689453125,-1.2546539306640625,0.0312957763671875
1737749715412103200,11.606103271484375,0.22161865234375,-1.2772064208984375,0.0324249267578125
1737749715422171100,11.616171142578125,0.09625244140625,-1.2806396484375,0.024444580078125
1737749715432238000,11.626238037109376,-0.0286865234375,-1.2297515869140625,0.0111083984375
1737749715442305000,11.636304931640625,-0.0873565673828125,-1.1060943603515625,0.004119873046875
1737749715452372000,11.6463720703125,-0.069488525390625,-0.9414215087890625,0.00018310546875
1737749715462440200,11.656440185546876,-0.0204010009765625,-0.8189697265625,-0.0602569580078125
1737749715472507100,11.666507080078125,0.134674072265625,-0.8168182373046875,-0.1361541748046875
1737749715482574300,11.67657421875,0.22723388671875,-0.970916748046875,-0.143280029296875
1737749715492642000,11.68664208984375,0.1407318115234375,-1.270843505859375,-0.0363922119140625
1737749715502709200,11.696709228515624,0.0065155029296875,-1.5796966552734375,0.1252593994140625
1737749715512776200,11.706776123046875,-0.218505859375,-1.6878814697265625,0.2838592529296875
1737749715522844200,11.71684423828125,-0.367828369140625,-1.4739227294921875,0.381927490234375
1737749715532911000,11.7269111328125,-0.3782196044921875,-1.0842437744140625,0.3491058349609375
1737749715542978000,11.73697802734375,-0.257598876953125,-0.781402587890625,0.1939239501953125
1737749715553045200,11.747045166015624,-0.2279205322265625,-0.6962738037109375,-0.029510498046875
1737749715563113200,11.75711328125,-0.1907501220703125,-0.84625244140625,-0.315704345703125
1737749715573180200,11.76718017578125,-0.177886962890625,-1.1445159912109375,-0.5828704833984375
1737749715583247000,11.7772470703125,-0.18817138671875,-1.4068145751953125,-0.687286376953125
1737749715593315000,11.787315185546875,-0.2811126708984375,-1.508148193359375,-0.6409759521484375
1737749715603382000,11.797382080078124,-0.32647705078125,-1.4774932861328125,-0.5571746826171875
1737749715613449200,11.80744921875,-0.337615966796875,-1.3543243408203125,-0.57861328125
1737749715623516200,11.81751611328125,-0.2481689453125,-1.205902099609375,-0.7184295654296875
1737749715633584400,11.82758447265625,-0.1329193115234375,-1.0583343505859375,-0.87200927734375
1737749715643651300,11.8376513671875,-0.0177001953125,-0.8883209228515625,-0.989349365234375
1737749715653718300,11.84771826171875,0.1049957275390625,-0.740325927734375,-0.9949493408203125
1737749715663786200,11.8577861328125,0.1703948974609375,-0.7132415771484375,-0.87750244140625
1737749715673853200,11.867853271484375,0.1044464111328125,-0.8533935546875,-0.6747894287109375
1737749715683920100,11.877920166015626,-0.0270233154296875,-1.11639404296875,-0.4576568603515625
1737749715693988000,11.887988037109375,-0.1365509033203125,-1.34417724609375,-0.30340576171875
1737749715704055000,11.898054931640624,-0.183319091796875,-1.3897705078125,-0.278656005859375
1737749715714122000,11.9081220703125,-0.160858154296875,-1.2554473876953125,-0.4490509033203125
1737749715724189000,11.91818896484375,-0.165008544921875,-1.0397491455078125,-0.756103515625
1737749715734257200,11.928257080078126,-0.1122589111328125,-0.8608856201171875,-1.0450897216796875
1737749715744324000,11.938323974609375,0.0556793212890625,-0.8071136474609375,-1.1148681640625
1737749715754391300,11.948391357421874,0.2400360107421875,-0.863739013671875,-0.9434814453125
1737749715764459000,11.958458984375,0.2713165283203125,-0.969512939453125,-0.69134521484375
1737749715774526200,11.968526123046875,0.26031494140625,-1.0502471923828125,-0.4978485107421875
1737749715784593200,11.97859326171875,0.2403106689453125,-1.0477447509765625,-0.34552001953125
1737749715794660000,11.98866015625,0.2960968017578125,-1.002777099609375,-0.243072509765625
1737749715804728300,11.998728271484374,0.23004150390625,-0.970794677734375,-0.2947845458984375
1737749715814795300,12.008795166015625,0.189208984375,-0.9705810546875,-0.455230712890625
1737749715824862200,12.0188623046875,0.172088623046875,-1.0086517333984375,-0.5808258056640625
1737749715834930200,12.02893017578125,0.118927001953125,-1.08612060546875,-0.589599609375
1737749715844997000,12.0389970703125,0.045196533203125,-1.0969696044921875,-0.582427978515625
1737749715855064000,12.04906396484375,0.047607421875,-1.0064544677734375,-0.57281494140625
1737749715865132000,12.059132080078125,0.0865325927734375,-0.9573822021484375,-0.5638580322265625
1737749715875199000,12.069198974609375,0.1704559326171875,-1.014068603515625,-0.6247406005859375
1737749715885266200,12.07926611328125,0.281463623046875,-1.011383056640625,-0.6561126708984375
1737749715895334100,12.089334228515625,0.292724609375,-0.881500244140625,-0.57867431640625
1737749715905401300,12.0994013671875,0.2500762939453125,-0.7634429931640625,-0.4581451416015625
1737749715915468300,12.10946826171875,0.186676025390625,-0.738861083984375,-0.329803466796875
1737749715925535200,12.11953515625,0.1300506591796875,-0.8052520751953125,-0.2387847900390625
1737749715935603200,12.129603271484376,0.0745849609375,-0.9781951904296875,-0.21380615234375
1737749715945670100,12.139670166015625,0.0240478515625,-1.1416015625,-0.313507080078125
1737749715955737000,12.149737060546874,0.0178680419921875,-1.1638336181640625,-0.558197021484375
1737749715965805000,12.15980517578125,0.0638275146484375,-1.1084442138671875,-0.7760162353515625
1737749715975872000,12.1698720703125,0.106658935546875,-1.099517822265625,-0.885986328125
1737749715985939200,12.179939208984376,0.074432373046875,-1.0563201904296875,-0.898406982421875
1737749715996007200,12.190007080078125,0.029022216796875,-0.946044921875,-0.7999267578125
1737749716006074000,12.20007421875,-0.0161895751953125,-0.9349517822265625,-0.5689544677734375
1737749716016141000,12.21014111328125,-0.022369384765625,-0.983917236328125,-0.2594451904296875
1737749716026209000,12.220208984375,-0.0457000732421875,-0.9893341064453125,0.028778076171875
1737749716036276200,12.230276123046876,-0.1320648193359375,-0.965362548828125,0.234832763671875
1737749716046343200,12.24034326171875,-0.14996337890625,-0.9896392822265625,0.297821044921875
1737749716056410000,12.25041015625,-0.1484832763671875,-1.1107940673828125,0.1826171875
1737749716066478300,12.260478271484375,-0.1142120361328125,-1.2344818115234375,-0.06402587890625
1737749716076545300,12.270545166015625,-0.0821075439453125,-1.19573974609375,-0.30621337890625
1737749716086612200,12.2806123046875,0.01336669921875,-1.05267333984375,-0.491058349609375
1737749716096680200,12.29068017578125,0.1060638427734375,-0.9526214599609375,-0.57952880859375
1737749716106747100,12.3007470703125,0.1347808837890625,-0.9642333984375,-0.5340118408203125
1737749716116814000,12.31081396484375,0.062744140625,-1.0387420654296875,-0.3625335693359375
1737749716126882000,12.320882080078125,-0.093475341796875,-1.03857421875,-0.1437530517578125
1737749716136949000,12.330948974609376,-0.234283447265625,-1.036651611328125,0.037384033203125
1737749716147016000,12.341015869140625,-0.275299072265625,-1.0936279296875,0.1194610595703125
1737749716157084200,12.351084228515624,-0.2128753662109375,-1.076873779296875,0.0111083984375
1737749716167151000,12.361151123046875,-0.113128662109375,-0.988922119140625,-0.1808624267578125
1737749716177218300,12.37121826171875,-0.009063720703125,-0.9373016357421875,-0.278839111328125
1737749716187285200,12.38128515625,0.0727081298828125,-0.9211883544921875,-0.2195281982421875
1737749716197353200,12.391353271484375,0.0542755126953125,-0.9131011962890625,0.0358428955078125
1737749716207420200,12.401420166015624,-0.05804443359375,-0.90179443359375,0.2246856689453125
1737749716217487000,12.411487060546875,-0.125244140625,-0.875946044921875,0.2727508544921875
1737749716227555000,12.42155517578125,-0.11181640625,-0.920318603515625,0.343109130859375
1737749716237619500,12.431619384765625,-0.096435546875,-1.0328369140625,0.2782440185546875
1737749716247686400,12.441686279296874,-0.069488525390625,-1.077545166015625,0.0525054931640625
1737749716257754400,12.45175439453125,-0.052154541015625,-0.9909210205078125,-0.1050872802734375
1737749716267821300,12.4618212890625,0.0266571044921875,-0.8924560546875,-0.1166839599609375
1737749716277888300,12.47188818359375,0.083465576171875,-0.9014892578125,0.0167083740234375
1737749716287956500,12.48195654296875,0.0673370361328125,-1.007598876953125,0.1543731689453125
1737749716298023400,12.4920234375,0.017059326171875,-1.084442138671875,0.1793060302734375
1737749716308090400,12.50209033203125,0.0572509765625,-1.0361328125,0.142791748046875
1737749716318158300,12.512158447265625,0.1315460205078125,-0.885498046875,0.1098175048828125
1737749716328225300,12.522225341796876,0.1537322998046875,-0.748260498046875,0.1318206787109375
1737749716338292500,12.53229248046875,0.11065673828125,-0.755615234375,0.205810546875
1737749716348360200,12.542360107421874,-0.017303466796875,-0.8907318115234375,0.3504180908203125
1737749716358427400,12.552427490234376,-0.11773681640625,-1.011444091796875,0.450714111328125
1737749716368494600,12.56249462890625,-0.0975494384765625,-1.03973388671875,0.3892822265625
1737749716378562600,12.5725625,-0.053497314453125,-1.006988525390625,0.1650848388671875
1737749716388629500,12.58262939453125,0.1509857177734375,-1.0239410400390625,-0.023162841796875
1737749716398696400,12.592696533203124,0.272003173828125,-1.0183868408203125,-0.143463134765625
1737749716408764400,12.602764404296876,0.204254150390625,-0.9462738037109375,-0.079071044921875
1737749716418831400,12.612831298828125,0.06439208984375,-0.927520751953125,0.20550537109375
1737749716428898300,12.622898193359376,-0.036102294921875,-0.9957733154296875,0.430267333984375
1737749716438966500,12.632966552734375,-0.04278564453125,-1.1169281005859375,0.48114013671875
1737749716449033500,12.643033447265625,-0.00103759765625,-1.174163818359375,0.3287506103515625
1737749716459100400,12.653100341796875,0.075714111328125,-1.097686767578125,0.04998779296875
1737749716469168400,12.66316845703125,0.1403656005859375,-0.9839019775390625,-0.1511688232421875
1737749716479235300,12.6732353515625,0.088104248046875,-0.9397735595703125,-0.1612701416015625
1737749716489302300,12.68330224609375,0.0031890869140625,-0.9842529296875,-0.0548858642578125
1737749716499370200,12.693370361328125,-0.0489044189453125,-1.138763427734375,0.1143341064453125
1737749716509437400,12.7034375,0.0501708984375,-1.3699951171875,0.2971649169921875
1737749716519504400,12.71350439453125,0.0701751708984375,-1.39630126953125,0.1448516845703125
1737749716529572600,12.723572509765624,0.075439453125,-1.167266845703125,-0.0718231201171875
1737749716539639600,12.7336396484375,0.0031890869140625,-0.961883544921875,-0.212127685546875
1737749716549706500,12.74370654296875,-0.1279144287109375,-0.9316558837890625,-0.321136474609375
1737749716559774500,12.7537744140625,-0.20416259765625,-1.0570220947265625,-0.2958221435546875
1737749716569841400,12.76384130859375,-0.2811126708984375,-1.1982574462890625,-0.21783447265625
1737749716579908400,12.773908447265624,-0.3037261962890625,-1.220672607421875,-0.1328887939453125
1737749716589976300,12.783976318359375,-0.3133087158203125,-1.1598968505859375,-0.0631103515625
1737749716600043300,12.794043212890625,-0.2862548828125,-1.1129913330078125,-0.0001373291015625
1737749716610110500,12.8041103515625,-0.2219085693359375,-1.0826873779296875,0.0028839111328125
1737749716620178400,12.814178466796875,-0.1362152099609375,-1.095977783203125,-0.0271453857421875
1737749716630245400,12.824245361328124,-0.0500030517578125,-1.178863525390625,-0.067352294921875
1737749716640312300,12.834312255859375,0.01806640625,-1.283294677734375,-0.1345062255859375
1737749716650379500,12.844379638671874,0.0647430419921875,-1.2970733642578125,-0.1930084228515625
1737749716660447200,12.854447265625,0.05316162109375,-1.2039794921875,-0.237945556640625
1737749716670514400,12.864514404296875,-0.0111083984375,-1.07269287109375,-0.267242431640625
1737749716680581400,12.874581298828126,-0.0521087646484375,-0.9487762451171875,-0.2685699462890625
1737749716690649600,12.884649658203125,-0.0897064208984375,-0.8579559326171875,-0.250213623046875
1737749716700716500,12.894716552734375,-0.120941162109375,-0.82464599609375,-0.240753173828125
1737749716710783500,12.904783447265626,-0.13885498046875,-0.8408660888671875,-0.26422119140625
1737749716720851500,12.9148515625,-0.1128997802734375,-0.874114990234375,-0.3017578125
1737749716730918400,12.92491845703125,-0.0389251708984375,-0.8837738037109375,-0.3328094482421875
1737749716740985300,12.9349853515625,0.007598876953125,-0.8505706787109375,-0.379730224609375
1737749716751053300,12.94505322265625,0.0005645751953125,-0.8180084228515625,-0.4420928955078125
1737749716761120300,12.955120361328126,0.0183563232421875,-0.799102783203125,-0.502655029296875
1737749716771187200,12.965187255859375,0.0506134033203125,-0.757476806640625,-0.533905029296875
1737749716781254400,12.97525439453125,0.0832061767578125,-0.7327117919921875,-0.5407867431640625
1737749716791322400,12.985322265625,0.0997772216796875,-0.777435302734375,-0.538787841796875
1737749716801389600,12.9953896484375,0.0977630615234375,-0.838104248046875,-0.5178985595703125
1737749716811456500,13.00545654296875,0.0892181396484375,-0.859375,-0.477325439453125
1737749716821524500,13.0155244140625,0.1015625,-0.8692169189453125,-0.4420928955078125
1737749716831591400,13.02559130859375,0.1046142578125,-0.8813934326171875,-0.4056549072265625
