time,seconds_elapsed,z,y,x
1737749703945453300,0.139453369140625,-0.013278787024319172,0.03416382893919945,-0.009585515595972538
1737749703955520500,0.1495205078125,-0.007478688843548298,0.05000723898410797,-0.001987250754609704
1737749703965587500,0.15958740234375,-0.0023515713401138783,0.03279389813542366,-0.0012948289513587952
1737749703975654400,0.169654296875,0.002805107505992055,-0.00030173614504747093,-0.005780124571174383
1737749703985722400,0.179722412109375,0.009377788752317429,-0.03848720341920853,-0.010671286843717098
1737749703995789300,0.189789306640625,0.022592393681406975,-0.08395455777645111,-0.00977486651390791
1737749704005856500,0.1998564453125,0.02076333574950695,-0.10241532325744629,-0.00041012681322172284
1737749704015924500,0.209924560546875,0.017711352556943893,-0.09847251325845718,0.007837949320673943
1737749704025991400,0.219991455078125,0.017647437751293182,-0.07796909660100937,0.011826565489172935
1737749704036058400,0.230058349609375,0.018162226304411888,-0.05981140211224556,0.011143997311592102
1737749704046125300,0.240125244140625,0.020658407360315323,-0.031739022582769394,0.011071027256548405
1737749704056193300,0.250193359375,0.027343474328517914,-0.02749953418970108,0.016209330409765244
1737749704066260200,0.26026025390625,0.02520522102713585,-0.01161431148648262,0.023807594552636147
1737749704076327400,0.270327392578125,0.023255255073308945,0.00020213393145240843,0.023968715220689774
1737749704086395400,0.2803955078125,0.028416726738214493,-0.009199357591569424,0.032163530588150024
1737749704096462600,0.290462646484375,0.027713119983673096,-0.023257918655872345,0.04126434773206711
1737749704106529500,0.300529541015625,0.02100381813943386,-0.024774055927991867,0.0395418182015419
1737749704116596500,0.310596435546875,0.028422053903341293,-0.011759987100958824,0.03566158935427666
1737749704126664400,0.32066455078125,0.03545359894633293,0.007999603636562824,0.032168321311473846
1737749704136731400,0.3307314453125,0.03815910220146179,0.008718390017747879,0.03250334784388542
1737749704146798300,0.34079833984375,0.043532829731702805,-0.024587368592619896,0.03472069650888443
1737749704156866300,0.3508662109375,0.041128262877464294,-0.06978307664394379,0.04331125319004059
1737749704166933200,0.360933349609375,0.033727072179317474,-0.09089022874832153,0.04409928247332573
1737749704177000400,0.37100048828125,0.02858051285147667,-0.09762535989284515,0.030732879415154457
1737749704187067400,0.3810673828125,0.02857811562716961,-0.1135057881474495,0.024396685883402824
1737749704197135400,0.39113525390625,0.02701004594564438,-0.13794854283332825,0.012603942304849625
1737749704207202600,0.40120263671875,0.028302477672696114,-0.15024569630622864,0.01350622158497572
1737749704217269500,0.41126953125,0.020988639444112778,-0.12618616223335266,0.01474565640091896
1737749704227337700,0.421337646484375,0.010087255388498306,-0.08843345940113068,0.014995194971561432
1737749704237405000,0.431405029296875,-0.001802960061468184,-0.044443897902965546,0.02208319865167141
1737749704247471900,0.441471923828125,-0.023256320506334305,-0.0029374666046351194,0.02219238691031933
1737749704257538800,0.451538818359375,-0.02623080462217331,0.02955309860408306,0.023368971422314644
1737749704267606800,0.461606689453125,-0.03425490856170654,0.03948748856782913,0.02473517321050167
1737749704277673700,0.471673828125,-0.03184181824326515,0.02714613266289234,0.020718595013022423
1737749704287740700,0.48174072265625,-0.03362081199884415,0.005386775825172663,0.012504606507718563
1737749704297809000,0.491808837890625,-0.029514748603105545,-0.0029020465444773436,0.013515009544789791
1737749704307875800,0.501875732421875,-0.025165008381009102,-0.003966512158513069,0.01450064592063427
1737749704317942800,0.51194287109375,-0.019173694774508476,0.001692705205641687,0.015419436618685722
1737749704328009700,0.522009765625,-0.02588166482746601,0.02112872153520584,0.020625116303563118
1737749704338077700,0.53207763671875,-0.02756105363368988,0.041425470262765884,0.019993148744106293
1737749704348145000,0.542144775390625,-0.02514450065791607,0.02816931903362274,0.01582716591656208
1737749704358211800,0.5522119140625,-0.019508186727762222,0.0038783615455031395,0.002823483431711793
1737749704368279800,0.56227978515625,-0.009729326702654362,-0.004935103934258223,-0.005575594026595354
1737749704378347000,0.572346923828125,-0.0136023610830307,0.010403638705611229,-0.0009440905996598303
1737749704388414000,0.5824140625,-0.015372032299637794,0.02839728631079197,-0.0022506373934447765
1737749704398481000,0.59248095703125,-0.011285943910479546,0.035106055438518524,0.004349208436906338
1737749704408548900,0.602548828125,-0.0054573495872318745,0.03782887011766434,0.020746024325489998
1737749704418615800,0.61261572265625,-0.00780652416869998,0.04217435047030449,0.018208565190434456
1737749704428682800,0.622682861328125,-0.013087838888168335,0.0430167093873024,0.013274792581796646
1737749704438750700,0.632750732421875,-0.003436276689171791,0.03267006203532219,0.009278719313442707
1737749704448817700,0.642817626953125,0.010430004447698593,0.023555127903819084,0.007419033907353878
1737749704458884600,0.652884521484375,0.020621921867132187,0.019411781802773476,0.011712582781910896
1737749704468952000,0.6629521484375,0.028138693422079086,0.010630007833242416,0.01991804875433445
1737749704479019800,0.673019775390625,0.028432706370949745,0.005584648810327053,0.012131230905652046
1737749704489087000,0.6830869140625,0.029589317739009857,-0.020243486389517784,0.0073290192522108555
1737749704499154000,0.69315380859375,0.020425911992788315,-0.029199963435530663,0.0008708536624908447
1737749704509222000,0.703221923828125,0.011991681531071663,-0.025128789246082306,0.005176652688533068
1737749704519288800,0.713288818359375,0.0024924525059759617,-0.013048158027231693,-0.00019627496658358723
1737749704529355800,0.723355712890625,0.0011936287628486753,-0.0126380305737257,-0.00612340634688735
1737749704539422700,0.733422607421875,0.0070736221969127655,-0.030068153515458107,0.003709783311933279
1737749704549491000,0.743490966796875,0.006518353242427111,-0.018385132774710655,0.013009808026254177
1737749704559558000,0.753557861328125,-0.003224821761250496,0.013636716641485691,0.016598418354988098
1737749704569624800,0.763624755859375,-0.008611864410340786,0.022373216226696968,0.01116397138684988
1737749704579692800,0.77369287109375,-0.006679740734398365,-0.0005520732956938446,0.005694637540727854
1737749704589759700,0.783759765625,-0.004740426782518625,-0.02642308548092842,0.002891926560550928
1737749704599826700,0.79382666015625,-0.0011118697002530098,-0.04043610766530037,-0.014621020294725895
1737749704609894700,0.803894775390625,0.00878177396953106,-0.05201286822557449,-0.023601200431585312
1737749704619961900,0.8139619140625,0.0037470676470547915,-0.059907540678977966,-0.036683179438114166
1737749704630028800,0.82402880859375,-0.003936684690415859,-0.06589033454656601,-0.027296070009469986
1737749704640095700,0.834095703125,-0.01858673430979252,-0.03936871141195297,-0.0029257487040013075
1737749704650164000,0.8441640625,-0.03593270108103752,0.022418489679694176,0.00726377172395587
1737749704660231000,0.85423095703125,-0.041611626744270325,0.07154235988855362,0.005074653308838606
1737749704670297900,0.8642978515625,-0.03322399780154228,0.07534881681203842,0.0006117281154729426
1737749704680365800,0.87436572265625,-0.018736936151981354,0.06022791936993599,-0.007636614143848419
1737749704690432800,0.884432861328125,-0.013394368812441826,0.034207239747047424,-0.01581891067326069
1737749704700499700,0.894499755859375,-0.008717591874301434,-0.006962035782635212,-0.01998302899301052
1737749704710566700,0.904566650390625,-0.011230816133320332,-0.05698499083518982,-0.018632274121046066
1737749704720635000,0.914634765625,-0.02389654517173767,-0.06539098918437958,-0.015858059749007225
1737749704730701800,0.924701904296875,-0.03320722281932831,-0.024685904383659363,-0.003382747294381261
1737749704740769000,0.93476904296875,-0.043299801647663116,0.015733156353235245,0.0008580705034546554
1737749704750836700,0.944836669921875,-0.05427149310708046,0.04080894961953163,0.0031667647417634726
1737749704760904000,0.954904052734375,-0.05290262773633003,0.061283864080905914,-0.0016391756944358349
1737749704770971000,0.964970947265625,-0.04598560184240341,0.07048188894987106,-0.00803209375590086
1737749704781037800,0.975037841796875,-0.0421125665307045,0.06497500836849213,-0.011629492044448853
1737749704791105800,0.985105712890625,-0.042871568351984024,0.027185015380382538,-0.0021611552219837904
1737749704801172700,0.9951728515625,-0.041661426424980164,-0.0035209653433412313,-0.0016873788554221392
1737749704811239700,1.00523974609375,-0.046418365091085434,0.007029413711279631,-0.0005824333056807518
1737749704821308000,1.015307861328125,-0.048658084124326706,0.024594558402895927,0.01417334284633398
1737749704831374800,1.025374755859375,-0.0556667260825634,0.04698588326573372,0.020306337624788284
1737749704841441800,1.03544189453125,-0.05838900804519653,0.061881475150585175,0.020540695637464523
1737749704851508700,1.0455087890625,-0.05559482052922249,0.03935912251472473,0.02461639605462551
1737749704861576700,1.05557666015625,-0.0504370741546154,0.025728799402713776,0.02569231390953064
1737749704871644000,1.065643798828125,-0.03700542077422142,0.012694223783910275,0.014830078929662704
1737749704881710800,1.0757109375,-0.018371284008026123,-0.028209000825881958,0.009240370243787766
1737749704891778800,1.08577880859375,-0.009256615303456783,-0.08169912546873093,0.012656406499445438
1737749704901846000,1.095845947265625,-0.008954346179962158,-0.09365352243185043,0.01877741515636444
1737749704911913000,1.105912841796875,-0.019634421914815903,-0.09200902283191681,0.028122447431087494
1737749704921980000,1.11597998046875,-0.03403706103563309,-0.07592219114303589,0.025957830250263214
1737749704932048000,1.1260478515625,-0.03650661185383797,-0.062311578541994095,0.03407701104879379
1737749704942114800,1.13611474609375,-0.040584977716207504,-0.06042952090501785,0.04381405934691429
1737749704952181800,1.146181640625,-0.04368675872683525,-0.06477446854114532,0.047684431076049805
1737749704962249700,1.156249755859375,-0.04261297360062599,-0.06525436788797379,0.04758536070585251
1737749704972316700,1.166316650390625,-0.038351383060216904,-0.06591083854436874,0.044129643589258194
1737749704982383600,1.176383544921875,-0.030432740226387978,-0.0828099250793457,0.04264413192868233
1737749704992450800,1.186450927734375,-0.024235565215349197,-0.09796970337629318,0.049193114042282104
1737749705002518800,1.196518798828125,-0.028300080448389053,-0.0885799303650856,0.05718152970075607
1737749705012586000,1.2065859375,-0.03895032778382301,-0.06933619827032089,0.06402452290058136
1737749705022653000,1.21665283203125,-0.04651184007525444,-0.05348879098892212,0.06383064389228821
1737749705032721000,1.226720947265625,-0.04066780209541321,-0.04433896765112877,0.06976496428251266
1737749705042787800,1.236787841796875,-0.03874899446964264,-0.02901567332446575,0.06791380047798157
1737749705052854800,1.246854736328125,-0.03750050440430641,-0.02664759010076523,0.06554518640041351
1737749705062921700,1.256921630859375,-0.04656963050365448,-0.028366127982735634,0.060986652970314026
1737749705072990000,1.266989990234375,-0.04524604231119156,-0.0257548987865448,0.0565602146089077
1737749705083057000,1.277056884765625,-0.0401945561170578,-0.024944230914115906,0.06332171708345413
1737749705093123800,1.287123779296875,-0.03460165113210678,-0.03731168434023857,0.06868718564510345
1737749705103191800,1.29719189453125,-0.038911979645490646,-0.04809509217739105,0.07221214473247528
1737749705113258800,1.3072587890625,-0.058225490152835846,-0.05907849967479706,0.07609450072050095
1737749705123326000,1.317325927734375,-0.07306701689958572,-0.06966669857501984,0.06785547733306885
1737749705133393000,1.327392822265625,-0.06599952280521393,-0.09371237456798553,0.06114564463496208
1737749705143460900,1.3374609375,-0.024114124476909637,-0.11567307263612747,0.05982258543372154
1737749705153527800,1.34752783203125,0.018570754677057266,-0.09510494023561478,0.05451357737183571
1737749705163594800,1.3575947265625,0.020956946536898613,-0.0718158632516861,0.057863034307956696
1737749705173663000,1.3676630859375,0.03886910155415535,-0.04085901752114296,0.07421590387821198
1737749705183730000,1.37772998046875,0.03160213306546211,0.025064606219530106,0.06916388869285583
1737749705193796900,1.387796875,-0.030615434050559998,0.05605794116854668,0.054358046501874924
1737749705203863800,1.39786376953125,-0.07895287126302719,0.005620335228741169,0.06083086133003235
1737749705213931800,1.407931884765625,-0.07997605949640274,-0.058945875614881516,0.060082510113716125
1737749705223998200,1.417998291015625,-0.055868592113256454,-0.10913128405809402,0.050749730318784714
1737749705234065400,1.4280654296875,-0.038421958684921265,-0.15360313653945923,0.046425290405750275
1737749705244133400,1.43813330078125,-0.03810024634003639,-0.1843850165605545,0.024576982483267784
1737749705254200600,1.44820068359375,-0.03943156078457832,-0.18594910204410553,0.015871906653046608
1737749705264267500,1.458267578125,-0.050399791449308395,-0.15064969658851624,0.02491440437734127
1737749705274334500,1.46833447265625,-0.0620306134223938,-0.1059274971485138,0.02965429797768593
1737749705284402400,1.47840234375,-0.06342131644487381,-0.06506768614053726,0.03051689639687538
1737749705294469400,1.488469482421875,-0.05691574513912201,-0.05248238146305084,0.029866285622119904
1737749705304536300,1.498536376953125,-0.05397055670619011,-0.07661514729261398,0.028733644634485245
1737749705314604500,1.5086044921875,-0.05275349318981171,-0.11409248411655426,0.03999455273151398
1737749705324671500,1.51867138671875,-0.05161472409963608,-0.1372755616903305,0.03919534012675285
1737749705334738400,1.528738525390625,-0.05031909793615341,-0.14957590401172638,0.03898708149790764
1737749705344806400,1.538806396484375,-0.04831480234861374,-0.16013774275779724,0.043413519859313965
1737749705354873300,1.548873291015625,-0.05685129761695862,-0.14976578950881958,0.044261738657951355
1737749705364940300,1.558940185546875,-0.07070053368806839,-0.1535533368587494,0.034626953303813934
1737749705375007500,1.569007568359375,-0.07927831262350082,-0.19592610001564026,0.02105068974196911
1737749705385075500,1.579075439453125,-0.07507158070802689,-0.24018250405788422,0.01495285052806139
1737749705395142400,1.589142333984375,-0.061640460044145584,-0.263374924659729,-0.006235791835933924
1737749705405209300,1.599209228515625,-0.055202800780534744,-0.2897966802120209,-0.03943049535155296
1737749705415277600,1.609277587890625,-0.05438680946826935,-0.330624520778656,-0.06833777576684952
1737749705425344500,1.619344482421875,-0.061890531331300735,-0.3866478502750397,-0.09722775220870972
1737749705435411500,1.629411376953125,-0.07074341177940369,-0.46128904819488525,-0.1302216500043869
1737749705445478400,1.639478515625,-0.0905354917049408,-0.5527646541595459,-0.17170384526252747
1737749705455546400,1.64954638671875,-0.11950455605983734,-0.6668632626533508,-0.2190828174352646
1737749705465613300,1.65961328125,-0.1650073230266571,-0.80545973777771,-0.28737664222717285
1737749705475680300,1.66968017578125,-0.2351376861333847,-0.9493870735168457,-0.3618184030056
1737749705485748200,1.679748291015625,-0.3329731523990631,-1.0940539836883545,-0.4420416057109833
1737749705495815400,1.6898154296875,-0.4546751081943512,-1.2580608129501343,-0.522502601146698
1737749705505882600,1.699882568359375,-0.5958274006843567,-1.4302546977996826,-0.6009710431098938
1737749705515949600,1.709949462890625,-0.7484893798828125,-1.6081141233444214,-0.679108738899231
1737749705526017500,1.720017578125,-0.8855404853820801,-1.7826379537582397,-0.7344796061515808
1737749705536084500,1.73008447265625,-0.9912732839584351,-1.9146543741226196,-0.7666258215904236
1737749705546151400,1.7401513671875,-1.0687795877456665,-1.9859431982040405,-0.7863947153091431
1737749705556219400,1.750219482421875,-1.1140998601913452,-1.9610391855239868,-0.812480092048645
1737749705566286300,1.760286376953125,-1.150339126586914,-1.8375017642974854,-0.8663761019706726
1737749705576353300,1.770353271484375,-1.22872793674469,-1.6209287643432617,-0.9319553971290588
1737749705586420200,1.780420166015625,-1.3590134382247925,-1.3423223495483398,-0.9706739783287048
1737749705596488400,1.790488525390625,-1.515804648399353,-1.0205882787704468,-0.9610913991928101
1737749705606555400,1.800555419921875,-1.6415098905563354,-0.654453694820404,-0.8879061341285706
1737749705616622300,1.810622314453125,-1.7085427045822144,-0.24749980866909027,-0.7147351503372192
1737749705626690300,1.820690185546875,-1.7266684770584106,0.1487271636724472,-0.5659036040306091
1737749705636757200,1.83075732421875,-1.7391294240951538,0.4164627194404602,-0.5006846785545349
1737749705646824400,1.840824462890625,-1.7822773456573486,0.5320479273796082,-0.4989677369594574
1737749705656891400,1.850891357421875,-1.8847342729568481,0.5502439737319946,-0.5377950072288513
1737749705666959600,1.860959716796875,-2.008140802383423,0.5576624870300293,-0.5732914805412292
1737749705677026600,1.871026611328125,-2.1055917739868164,0.6291869878768921,-0.5927450656890869
1737749705687093500,1.881093505859375,-2.1250157356262207,0.7874173521995544,-0.5806319713592529
1737749705697161500,1.891161376953125,-2.073411703109741,1.001308560371399,-0.5456340312957764
1737749705707228400,1.901228515625,-1.9911293983459473,1.2482707500457764,-0.5184444785118103
1737749705717295400,1.91129541015625,-1.9367578029632568,1.5205488204956055,-0.4960038959980011
1737749705727362300,1.9213623046875,-1.9140578508377075,1.805627703666687,-0.46346965432167053
1737749705737430300,1.93143017578125,-1.8982479572296143,2.0825400352478027,-0.41524913907051086
1737749705747497200,1.941497314453125,-1.8836660385131836,2.315181016921997,-0.3529106676578522
1737749705757564400,1.951564453125,-1.8543081283569336,2.4714155197143555,-0.2882794737815857
1737749705767632400,1.96163232421875,-1.8073835372924805,2.5470457077026367,-0.2329469621181488
1737749705777699600,1.971699462890625,-1.7460570335388184,2.554882764816284,-0.18101611733436584
1737749705787766500,1.9817666015625,-1.657692551612854,2.5044643878936768,-0.12743544578552246
1737749705797833500,1.99183349609375,-1.5460898876190186,2.40203857421875,-0.09163670986890793
1737749705807901400,2.0019013671875,-1.4307228326797485,2.2552664279937744,-0.07936938852071762
1737749705817968400,2.011968505859375,-1.3321267366409302,2.0676052570343018,-0.08534605801105499
1737749705828035300,2.022035400390625,-1.2468315362930298,1.8588377237319946,-0.11538997292518616
1737749705838102300,2.032102294921875,-1.180985450744629,1.6289187669754028,-0.15638214349746704
1737749705848170500,2.04217041015625,-1.1208323240280151,1.3964256048202515,-0.21091116964817047
1737749705858237400,2.052237548828125,-1.061053991317749,1.1808350086212158,-0.2663118541240692
1737749705868304400,2.062304443359375,-1.000837802886963,0.9999874234199524,-0.31821393966674805
1737749705878372400,2.072372314453125,-0.9359184503555298,0.8724132180213928,-0.3691825568675995
1737749705888439300,2.082439208984375,-0.8744233846664429,0.8060248494148254,-0.4121209681034088
1737749705898506500,2.092506591796875,-0.8161243796348572,0.7875531911849976,-0.45779046416282654
1737749705908573400,2.102573486328125,-0.7608009576797485,0.7980130314826965,-0.49955281615257263
1737749705918641400,2.112641357421875,-0.7003381252288818,0.8294675946235657,-0.5381249785423279
1737749705928708400,2.122708251953125,-0.6209143996238708,0.8737155199050903,-0.5765783786773682
1737749705938775300,2.132775390625,-0.5340663194656372,0.9131454825401306,-0.6297451853752136
1737749705948843500,2.142843505859375,-0.44727444648742676,0.9308145046234131,-0.6897650957107544
1737749705958910500,2.152910400390625,-0.3660387098789215,0.9368364214897156,-0.7603673934936523
1737749705968977400,2.162977294921875,-0.28426793217658997,0.932097315788269,-0.8226206302642822
1737749705979044400,2.17304443359375,-0.18404759466648102,0.9083235263824463,-0.8731192350387573
1737749705989112300,2.1831123046875,-0.06430734694004059,0.874118447303772,-0.9135156273841858
1737749705999179300,2.19317919921875,0.07120094448328018,0.8150282502174377,-0.9136959314346313
1737749706009246500,2.20324658203125,0.21860425174236298,0.7131050229072571,-0.8733431696891785
1737749706019314200,2.213314208984375,0.33653247356414795,0.5820985436439514,-0.8736540079116821
1737749706029381600,2.223381591796875,0.3606069087982178,0.4828449487686157,-0.9242979884147644
1737749706039448600,2.233448486328125,0.3167153596878052,0.3753235638141632,-0.9820678234100342
1737749706049515500,2.243515625,0.25437769293785095,0.2693995237350464,-0.9863400459289551
1737749706059583500,2.25358349609375,0.19878552854061127,0.22018030285835266,-0.9250577688217163
1737749706069650400,2.263650390625,0.18579170107841492,0.28755322098731995,-0.8160793781280518
1737749706079717400,2.27371728515625,0.23471184074878693,0.4848867952823639,-0.7090924382209778
1737749706089784300,2.283784423828125,0.33785101771354675,0.7210151553153992,-0.614777684211731
1737749706099852300,2.293852294921875,0.4875989556312561,0.9252008199691772,-0.5266736745834351
1737749706109919200,2.303919189453125,0.6306540966033936,1.0203001499176025,-0.4429659843444824
1737749706119986200,2.313986083984375,0.7345549464225769,1.0026183128356934,-0.3840278387069702
1737749706130054400,2.324054443359375,0.7740416526794434,0.9077032804489136,-0.34155601263046265
1737749706140121300,2.334121337890625,0.7531816363334656,0.7774766087532043,-0.3027806282043457
1737749706150188500,2.3441884765625,0.7058697938919067,0.6576766967773438,-0.25768986344337463
1737749706160255500,2.35425537109375,0.6945028901100159,0.5493238568305969,-0.21657757461071014
1737749706170323500,2.364323486328125,0.7279250025749207,0.48354482650756836,-0.17468897998332977
1737749706180390400,2.374390380859375,0.7875127196311951,0.45960381627082825,-0.14989815652370453
1737749706190457300,2.384457275390625,0.8455829620361328,0.4654342830181122,-0.13593386113643646
1737749706200525600,2.394525634765625,0.8710504770278931,0.4712522029876709,-0.13159477710723877
1737749706210592500,2.404592529296875,0.8636354207992554,0.4759193956851959,-0.13661377131938934
1737749706220659500,2.414659423828125,0.8295989036560059,0.4954015016555786,-0.150966078042984
1737749706230726700,2.4247265625,0.780500590801239,0.5250959992408752,-0.1719171702861786
1737749706240795000,2.434794921875,0.7346361875534058,0.5691827535629272,-0.19563262164592743
1737749706250861800,2.44486181640625,0.6994611620903015,0.6244598627090454,-0.2176676094532013
1737749706260928800,2.4549287109375,0.6718087196350098,0.684871256351471,-0.22925955057144165
1737749706270996700,2.464996826171875,0.6516310572624207,0.75082927942276,-0.23851031064987183
1737749706281063700,2.475063720703125,0.6490568518638611,0.8229796290397644,-0.25187671184539795
1737749706291131000,2.485130859375,0.6544049978256226,0.8870776295661926,-0.26202255487442017
1737749706301197800,2.49519775390625,0.6713653206825256,0.945396363735199,-0.27279797196388245
1737749706311265800,2.505265869140625,0.6986363530158997,0.9910277724266052,-0.28048333525657654
1737749706321332700,2.515332763671875,0.7276754975318909,1.026232123374939,-0.2867896854877472
1737749706331399700,2.525399658203125,0.7588363289833069,1.0520455837249756,-0.2929527759552002
1737749706341466600,2.535466552734375,0.7830817103385925,1.0505685806274414,-0.298572838306427
1737749706351534800,2.545534912109375,0.8052768111228943,1.038628339767456,-0.2966039776802063
1737749706361601800,2.555601806640625,0.8207945227622986,1.0105916261672974,-0.292144775390625
1737749706371668700,2.565668701171875,0.8303062319755554,0.9758400321006775,-0.27662840485572815
1737749706381736700,2.57573681640625,0.8366680145263672,0.9448413252830505,-0.24100755155086517
1737749706391803600,2.5858037109375,0.8429650664329529,0.921785295009613,-0.18516825139522552
1737749706401870800,2.595870849609375,0.8476260900497437,0.9089078307151794,-0.11572713404893875
1737749706411937800,2.605937744140625,0.8470207452774048,0.913128674030304,-0.03279070183634758
1737749706422006000,2.616006103515625,0.8366155624389648,0.9208494424819946,0.04212028905749321
1737749706432073000,2.626072998046875,0.820104718208313,0.9376774430274963,0.12313471734523773
1737749706442140000,2.636139892578125,0.8020157217979431,0.9555088877677917,0.19649867713451385
1737749706452207900,2.646207763671875,0.7818500399589539,0.9703600406646729,0.262891560792923
1737749706462274800,2.65627490234375,0.7586627006530762,0.9732751250267029,0.3273485600948334
1737749706472341800,2.666341796875,0.7361903786659241,0.9508321285247803,0.393797904253006
1737749706482408700,2.67640869140625,0.7126022577285767,0.9274554252624512,0.45352062582969666
1737749706492476700,2.6864765625,0.694580614566803,0.8846829533576965,0.5071542859077454
1737749706502543600,2.696543701171875,0.6788669228553772,0.8303936123847961,0.5696560144424438
1737749706512610600,2.706610595703125,0.6730644106864929,0.7786707282066345,0.6432721614837646
1737749706522678000,2.716677978515625,0.6716199517250061,0.7368500828742981,0.7191288471221924
1737749706532745700,2.726745849609375,0.6618895530700684,0.702337920665741,0.7937602400779724
1737749706542813000,2.73681298828125,0.6355804204940796,0.6800235509872437,0.8623424768447876
1737749706552879900,2.7468798828125,0.594014585018158,0.6694182753562927,0.926784873008728
1737749706562947800,2.75694775390625,0.5390123724937439,0.6815969347953796,0.9765886068344116
1737749706573014800,2.767014892578125,0.4570455849170685,0.7193986177444458,1.008529543876648
1737749706583081700,2.777081787109375,0.34791722893714905,0.7822591066360474,1.028554081916809
1737749706593148700,2.787148681640625,0.22855807840824127,0.8474013209342957,1.0522111654281616
1737749706603217000,2.797216796875,0.11195716261863708,0.9036185145378113,1.0873210430145264
1737749706613283800,2.807283935546875,0.008232097141444683,0.968636155128479,1.1393452882766724
1737749706623350800,2.817350830078125,-0.0709383562207222,1.0450752973556519,1.1874409914016724
1737749706633417700,2.827417724609375,-0.12075384706258774,1.1368919610977173,1.2460442781448364
1737749706643485700,2.837485595703125,-0.13264405727386475,1.2131049633026123,1.3770766258239746
1737749706653553000,2.847552978515625,-0.09910794347524643,1.2773269414901733,1.5768855810165405
1737749706663619800,2.857619873046875,-0.07515253871679306,1.4103275537490845,1.6744742393493652
1737749706673687800,2.867687744140625,-0.0829758420586586,1.6335443258285522,1.613293170928955
1737749706683754800,2.877754638671875,-0.13167627155780792,1.8737878799438477,1.4582141637802124
1737749706693821700,2.88782177734375,-0.18996860086917877,2.0354812145233154,1.317276120185852
1737749706703889000,2.897888916015625,-0.25884515047073364,2.1144518852233887,1.2446613311767578
1737749706713956900,2.907956787109375,-0.32629555463790894,2.193674087524414,1.2079839706420898
1737749706724023800,2.91802392578125,-0.37142282724380493,2.3063297271728516,1.1567949056625366
1737749706734090800,2.9280908203125,-0.3391663432121277,2.401888608932495,1.1050046682357788
1737749706744157700,2.93815771484375,-0.17854709923267365,2.439394474029541,1.0724480152130127
1737749706754225700,2.9482255859375,0.08908966183662415,2.3956825733184814,1.033047080039978
1737749706764292600,2.958292724609375,0.36118748784065247,2.299938201904297,0.9726322293281555
1737749706774359800,2.96835986328125,0.5358442664146423,2.1874799728393555,0.8950074911117554
1737749706784427800,2.978427734375,0.5883434414863586,2.0731968879699707,0.8079410195350647
1737749706794495000,2.988494873046875,0.5336290597915649,1.9643486738204956,0.7101763486862183
1737749706804562000,2.99856201171875,0.4168244004249573,1.8540338277816772,0.6207565069198608
1737749706814628900,3.00862890625,0.285900741815567,1.7597209215164185,0.5291778445243835
1737749706824696800,3.01869677734375,0.17357338964939117,1.711545705795288,0.4296344518661499
1737749706834763800,3.028763671875,0.09225030243396759,1.6845628023147583,0.34667831659317017
1737749706844830700,3.038830810546875,0.045362688601017,1.653865933418274,0.28167295455932617
1737749706854897700,3.048897705078125,0.028149079531431198,1.6147205829620361,0.23798885941505432
1737749706864965600,3.058965576171875,0.022295452654361725,1.5645078420639038,0.19155985116958618
1737749706875032600,3.069032470703125,0.024814536795020103,1.508558750152588,0.1315726786851883
1737749706885099800,3.079099853515625,0.026801787316799164,1.4546608924865723,0.05481051653623581
1737749706895167700,3.089167724609375,0.017669541761279106,1.4266256093978882,-0.034025877714157104
1737749706905234700,3.099234619140625,-0.0027321369852870703,1.430236577987671,-0.12620161473751068
1737749706915302000,3.109302001953125,-0.01894466206431389,1.4664539098739624,-0.20716357231140137
1737749706925368800,3.119368896484375,-0.020970528945326805,1.5104312896728516,-0.2754502296447754
1737749706935436800,3.129436767578125,-0.007968710735440254,1.5672942399978638,-0.34021323919296265
1737749706945503700,3.139503662109375,0.02767370641231537,1.6333200931549072,-0.38174283504486084
1737749706955570700,3.14957080078125,0.07093436270952225,1.696006417274475,-0.4083813726902008
1737749706965639000,3.159638916015625,0.10265553742647171,1.7587158679962158,-0.44117259979248047
1737749706975705900,3.169705810546875,0.1130107045173645,1.8100533485412598,-0.48962801694869995
1737749706985772800,3.179772705078125,0.09636355191469193,1.8362183570861816,-0.5460169911384583
1737749706995839700,3.18983984375,0.062312375754117966,1.8340950012207031,-0.5939840078353882
1737749707005907700,3.19990771484375,0.022244585677981377,1.7973253726959229,-0.6261366009712219
1737749707015974700,3.209974609375,-0.023570040240883827,1.7463414669036865,-0.6516555547714233
1737749707026041900,3.220041748046875,-0.06106308847665787,1.6909589767456055,-0.6634131073951721
1737749707036108800,3.23010888671875,-0.07931399345397949,1.637523889541626,-0.6754322648048401
1737749707046176800,3.2401767578125,-0.0810365304350853,1.5865763425827026,-0.690829336643219
1737749707056244000,3.250243896484375,-0.07252426445484161,1.5401753187179565,-0.7010507583618164
1737749707066311000,3.260310791015625,-0.06338483095169067,1.4825907945632935,-0.7124158143997192
1737749707076379000,3.27037890625,-0.06556888669729233,1.396254301071167,-0.7202878594398499
1737749707086445800,3.28044580078125,-0.07961306720972061,1.2932085990905762,-0.7246764898300171
1737749707096512800,3.2905126953125,-0.10646652430295944,1.1698113679885864,-0.7328957915306091
1737749707106579700,3.300579833984375,-0.14415238797664642,1.0412483215332031,-0.7462523579597473
1737749707116647700,3.310647705078125,-0.19404058158397675,0.916490912437439,-0.7614843249320984
1737749707126714600,3.320714599609375,-0.24560417234897614,0.7868876457214355,-0.7746219635009766
1737749707136781600,3.330781494140625,-0.302791029214859,0.6562249660491943,-0.7937306761741638
1737749707146849800,3.340849853515625,-0.37377652525901794,0.5064283013343811,-0.8141981363296509
1737749707156916700,3.350916748046875,-0.45392167568206787,0.3468668758869171,-0.8343398571014404
1737749707166984000,3.36098388671875,-0.55253666639328,0.1821192055940628,-0.846333384513855
1737749707177051000,3.37105078125,-0.6655449867248535,0.022278940305113792,-0.8562297224998474
1737749707187118800,3.381118896484375,-0.7953485250473022,-0.1301388293504715,-0.8410316109657288
1737749707197185800,3.391185791015625,-0.923125147819519,-0.2453080266714096,-0.8030050992965698
1737749707207252700,3.401252685546875,-1.0366836786270142,-0.30763211846351624,-0.7256719470024109
1737749707217319700,3.411319580078125,-1.114943265914917,-0.31780967116355896,-0.6236337423324585
1737749707227387100,3.42138720703125,-1.1485977172851562,-0.2684623599052429,-0.5115516781806946
1737749707237454000,3.4314541015625,-1.1134647130966187,-0.14366714656352997,-0.4439271092414856
1737749707247521300,3.441521240234375,-1.0092980861663818,0.02846839278936386,-0.415351927280426
1737749707257589200,3.45158935546875,-0.8538312911987305,0.21866656839847565,-0.3891533315181732
1737749707267656400,3.461656494140625,-0.6938874125480652,0.37713611125946045,-0.3630216121673584
1737749707277723400,3.471723388671875,-0.5704283118247986,0.5329131484031677,-0.3378203809261322
1737749707287790300,3.481790283203125,-0.5005738735198975,0.7104954123497009,-0.30738896131515503
1737749707297858300,3.4918583984375,-0.45405590534210205,0.9141643643379211,-0.28259041905403137
1737749707307925200,3.50192529296875,-0.4133993089199066,1.1168115139007568,-0.2481464296579361
1737749707317992200,3.5119921875,-0.3741730749607086,1.313833475112915,-0.1901286542415619
1737749707328059100,3.52205908203125,-0.3143076002597809,1.4748955965042114,-0.10536424070596695
1737749707338127400,3.53212744140625,-0.24878717958927155,1.5839922428131104,-0.022785473614931107
1737749707348194300,3.5421943359375,-0.17560377717018127,1.6520980596542358,0.04433204606175423
1737749707358261200,3.55226123046875,-0.1109214574098587,1.6993333101272583,0.0954253226518631
1737749707368329200,3.5623291015625,-0.0789845660328865,1.731188178062439,0.12453393638134003
1737749707378396200,3.572396240234375,-0.09084068983793259,1.7420008182525635,0.13659459352493286
1737749707388463400,3.58246337890625,-0.1544385701417923,1.697054386138916,0.1411304920911789
1737749707398530300,3.5925302734375,-0.2686927020549774,1.5958439111709595,0.13470028340816498
1737749707408598300,3.602598388671875,-0.409976601600647,1.4588398933410645,0.09463436156511307
1737749707418665200,3.612665283203125,-0.5389119386672974,1.3177310228347778,0.021169200539588928
1737749707428732400,3.622732421875,-0.6254444718360901,1.1912684440612793,-0.06490576267242432
1737749707438800400,3.63280029296875,-0.660506010055542,1.0639253854751587,-0.1418178528547287
1737749707448867300,3.642867431640625,-0.6661005020141602,0.9398164749145508,-0.2060738056898117
1737749707458934300,3.652934326171875,-0.6512120962142944,0.8327541947364807,-0.2563532292842865
1737749707469001200,3.663001220703125,-0.6198102831840515,0.7627264261245728,-0.29489848017692566
1737749707479069200,3.673069091796875,-0.5843178033828735,0.7390162944793701,-0.3325108289718628
1737749707489136000,3.68313623046875,-0.5632537603378296,0.7557734251022339,-0.37583860754966736
1737749707499203300,3.693203369140625,-0.5534189939498901,0.8034615516662598,-0.4153982698917389
1737749707509270300,3.703270263671875,-0.5513230562210083,0.879503607749939,-0.44521981477737427
1737749707519338500,3.71333837890625,-0.5505057573318481,0.9628211259841919,-0.4531722664833069
1737749707529405400,3.723405517578125,-0.5442970991134644,1.069362759590149,-0.4456070363521576
1737749707539472400,3.733472412109375,-0.5448721051216125,1.185612440109253,-0.43359512090682983
1737749707549540400,3.743540283203125,-0.5451229810714722,1.2999786138534546,-0.42006146907806396
1737749707559607300,3.753607177734375,-0.5662157535552979,1.3845148086547852,-0.4110589027404785
1737749707569674200,3.76367431640625,-0.6263025403022766,1.422186017036438,-0.41602838039398193
1737749707579741200,3.7737412109375,-0.7031653523445129,1.4089852571487427,-0.43824711441993713
1737749707589809200,3.78380908203125,-0.761975109577179,1.4036227464675903,-0.47548556327819824
1737749707599876000,3.7938759765625,-0.7588744163513184,1.4230952262878418,-0.5081140995025635
1737749707609943300,3.803943359375,-0.683138370513916,1.4546889066696167,-0.5235868096351624
1737749707620011300,3.81401123046875,-0.5670437216758728,1.4708926677703857,-0.5161975622177124
1737749707630078200,3.824078125,-0.43007922172546387,1.4501394033432007,-0.4573531746864319
1737749707640145400,3.8341455078125,-0.29108378291130066,1.4074071645736694,-0.33252495527267456
1737749707650212400,3.84421240234375,-0.1697903722524643,1.3627480268478394,-0.17864510416984558
1737749707660280300,3.8542802734375,-0.06135816499590874,1.332885980606079,-0.03266660124063492
1737749707670347300,3.86434716796875,0.038058970123529434,1.324136734008789,0.06917721033096313
1737749707680414200,3.874414306640625,0.10764790326356888,1.280958890914917,0.08441554754972458
1737749707690482400,3.884482421875,0.11359447240829468,1.112837553024292,0.03249961882829666
1737749707700549400,3.89454931640625,0.0439368300139904,0.8211761116981506,-0.061653777956962585
1737749707710616300,3.9046162109375,-0.08487920463085175,0.5060656070709229,-0.14965607225894928
1737749707720683300,3.914683349609375,-0.21214288473129272,0.23392221331596375,-0.21648330986499786
1737749707730751200,3.924751220703125,-0.28269854187965393,0.03959827497601509,-0.27012497186660767
1737749707740818200,3.934818115234375,-0.27697300910949707,-0.05931232497096062,-0.3136498034000397
1737749707750885400,3.944885498046875,-0.2333645522594452,-0.08470530062913895,-0.35825294256210327
1737749707760952300,3.954952392578125,-0.18108190596103668,-0.05266747251152992,-0.3935835063457489
1737749707771020300,3.965020263671875,-0.12440424412488937,0.029822610318660736,-0.42768555879592896
1737749707781087500,3.97508740234375,-0.08393724262714386,0.15084916353225708,-0.4666191041469574
1737749707791154400,3.985154541015625,-0.04879230633378029,0.2766196131706238,-0.5100368857383728
1737749707801222400,3.995222412109375,-0.042940277606248856,0.39454784989356995,-0.5622774362564087
1737749707811289300,4.005289306640625,-0.057799383997917175,0.48933321237564087,-0.6268151998519897
1737749707821356300,4.015356201171875,-0.08325174450874329,0.5531119108200073,-0.6891664266586304
1737749707831423200,4.02542333984375,-0.10513201355934143,0.5936047434806824,-0.7617905735969543
1737749707841491200,4.0354912109375,-0.12492196261882782,0.6149723529815674,-0.8338645100593567
1737749707851558100,4.04555810546875,-0.1313052922487259,0.627999484539032,-0.8805912733078003
1737749707861625000,4.055625,-0.11895168572664261,0.6392598748207092,-0.8877788782119751
1737749707871692300,4.0656923828125,-0.08549279719591141,0.6456021666526794,-0.8581479787826538
1737749707881760300,4.07576025390625,-0.029378395527601242,0.6667410135269165,-0.799332320690155
1737749707891827500,4.085827392578125,0.035646144300699234,0.6864569187164307,-0.7301506400108337
1737749707901894400,4.095894287109375,0.09880540519952774,0.7038156986236572,-0.6515902876853943
1737749707911962400,4.10596240234375,0.14683711528778076,0.6950525641441345,-0.5686437487602234
1737749707922029300,4.116029296875,0.1822126805782318,0.6699562668800354,-0.48042547702789307
1737749707932096300,4.12609619140625,0.21775522828102112,0.6311361789703369,-0.3834163546562195
1737749707942164200,4.136164306640625,0.2539747655391693,0.5774756073951721,-0.2839664816856384
1737749707952231200,4.146231201171875,0.2841121554374695,0.5118014812469482,-0.1879134476184845
1737749707962298400,4.15629833984375,0.3162463903427124,0.4410807192325592,-0.0976213663816452
1737749707972365300,4.166365234375,0.34681200981140137,0.37182682752609253,-0.01599787548184395
1737749707982433300,4.176433349609375,0.36791595816612244,0.3011912703514099,0.060152020305395126
1737749707992500200,4.186500244140625,0.3790208101272583,0.2157227098941803,0.12482848763465881
1737749708002567200,4.196567138671875,0.3732004761695862,0.11932612955570221,0.17703895270824432
1737749708012634400,4.20663427734375,0.3504917025566101,0.03578942269086838,0.22171029448509216
1737749708022702300,4.216702392578125,0.3408374786376953,-0.03828081116080284,0.2789924740791321
1737749708032769300,4.226769287109375,0.3574007451534271,-0.0961771309375763,0.345155268907547
1737749708042836200,4.236836181640625,0.39841556549072266,-0.13292129337787628,0.4065626859664917
1737749708052904400,4.246904541015625,0.4590213894844055,-0.13576288521289825,0.45872390270233154
1737749708062971400,4.256971435546875,0.5141221880912781,-0.11257821321487427,0.5061537623405457
1737749708073038300,4.267038330078125,0.5615049004554749,-0.07648784667253494,0.5437272191047668
1737749708083105300,4.277105224609375,0.5996458530426025,-0.03262372314929962,0.5722400546073914
1737749708093173200,4.28717333984375,0.6271488666534424,0.014572551473975182,0.593856930732727
1737749708103240200,4.297240234375,0.653401255607605,0.06395608186721802,0.6167652010917664
1737749708113307100,4.30730712890625,0.6914146542549133,0.1155654788017273,0.6216707229614258
1737749708123375000,4.317375,0.7366607189178467,0.16948090493679047,0.6261081099510193
1737749708133442000,4.327442138671875,0.7784441113471985,0.2378261387348175,0.6238158941268921
1737749708143509500,4.337509521484375,0.8065862655639648,0.2977163791656494,0.6193572282791138
1737749708153576400,4.347576416015625,0.8256875276565552,0.3518717586994171,0.6152405142784119
1737749708163644400,4.35764453125,0.8591663837432861,0.41415002942085266,0.6215450167655945
1737749708173711400,4.36771142578125,0.9186260104179382,0.4908360242843628,0.6302887201309204
1737749708183778300,4.3777783203125,0.9975737929344177,0.5735828280448914,0.640925943851471
1737749708193846300,4.38784619140625,1.0807727575302124,0.6515154838562012,0.6431728601455688
1737749708203913200,4.397913330078125,1.1601171493530273,0.7105622887611389,0.6353122591972351
1737749708213980200,4.407980224609375,1.229037880897522,0.7421553730964661,0.6212065815925598
1737749708224047600,4.418047607421875,1.288967251777649,0.7538279891014099,0.6022741198539734
1737749708234115600,4.428115478515625,1.3432451486587524,0.7546783089637756,0.5771432518959045
1737749708244182500,4.4381826171875,1.3903346061706543,0.7636984586715698,0.531684935092926
1737749708254249700,4.448249755859375,1.4330235719680786,0.7901734709739685,0.4679400324821472
1737749708264317700,4.458317626953125,1.4758654832839966,0.8072464466094971,0.41401156783103943
1737749708274384600,4.468384521484375,1.5260515213012695,0.8217572569847107,0.3629949688911438
1737749708284451800,4.478451904296875,1.58595871925354,0.8129131197929382,0.32658424973487854
1737749708294518800,4.488518798828125,1.6439591646194458,0.7874042987823486,0.3066302537918091
1737749708304586800,4.498586669921875,1.6987662315368652,0.743661642074585,0.28741365671157837
1737749708314653700,4.50865380859375,1.7419099807739258,0.6850776672363281,0.2775868773460388
1737749708324720600,4.518720703125,1.763327717781067,0.6166251301765442,0.2639096677303314
1737749708334788900,4.528788818359375,1.7587324380874634,0.5413170456886292,0.2599330544471741
1737749708344855800,4.538855712890625,1.7285881042480469,0.4648827314376831,0.24127733707427979
1737749708354922800,4.5489228515625,1.6731288433074951,0.3745967745780945,0.2161770462989807
1737749708364989700,4.55898974609375,1.6045702695846558,0.27339211106300354,0.2055574208498001
1737749708375057700,4.5690576171875,1.5390141010284424,0.1709485799074173,0.21227310597896576
1737749708385124600,4.57912451171875,1.4942001104354858,0.07336129993200302,0.21805164217948914
1737749708395191600,4.589191650390625,1.4672420024871826,-0.01455737091600895,0.21873687207698822
1737749708405259500,4.599259521484375,1.451767921447754,-0.08786726742982864,0.2091849148273468
1737749708415326700,4.60932666015625,1.4449819326400757,-0.15670332312583923,0.18819254636764526
1737749708425393700,4.6193935546875,1.4411113262176514,-0.2360285073518753,0.16418521106243134
1737749708435460900,4.6294609375,1.4287116527557373,-0.3302000164985657,0.14732953906059265
1737749708445528800,4.63952880859375,1.4002323150634766,-0.4278951585292816,0.1256396770477295
1737749708455595800,4.649595703125,1.3528916835784912,-0.515166163444519,0.09250543266534805
1737749708465662700,4.659662841796875,1.289106845855713,-0.60513836145401,0.04710625857114792
1737749708475730700,4.669730712890625,1.2149373292922974,-0.6766673922538757,-0.02309679612517357
1737749708485797600,4.679797607421875,1.1367827653884888,-0.7191714644432068,-0.10263902693986893
1737749708495864600,4.689864501953125,1.0633021593093872,-0.7401220202445984,-0.17901982367038727
1737749708505932800,4.699932861328125,0.9913289546966553,-0.7462305426597595,-0.2421540468931198
1737749708515999700,4.709999755859375,0.9191130995750427,-0.7372120022773743,-0.2720254063606262
1737749708526066700,4.720066650390625,0.8402978777885437,-0.721545398235321,-0.28425195813179016
1737749708536134000,4.7301337890625,0.7657445669174194,-0.6737943887710571,-0.28617608547210693
1737749708546201600,4.74020166015625,0.7146539688110352,-0.5922550559043884,-0.28697532415390015
1737749708556268800,4.750268798828125,0.679928719997406,-0.47576120495796204,-0.30741241574287415
1737749708566335700,4.760335693359375,0.6635907888412476,-0.3441595137119293,-0.3392840623855591
1737749708576403700,4.77040380859375,0.6570590734481812,-0.23077543079853058,-0.3781987130641937
1737749708586470700,4.780470703125,0.6528196334838867,-0.14474813640117645,-0.41779404878616333
1737749708596537600,4.79053759765625,0.6208387613296509,-0.09756436944007874,-0.44788989424705505
1737749708606604800,4.800604736328125,0.5800719261169434,-0.08973601460456848,-0.46113884449005127
1737749708616672800,4.8106728515625,0.5492772459983826,-0.1067219153046608,-0.4678148627281189
1737749708626739700,4.82073974609375,0.5331965088844299,-0.1314067542552948,-0.48601651191711426
1737749708636806700,4.830806640625,0.5378722548484802,-0.17553266882896423,-0.5269650220870972
1737749708646874600,4.84087451171875,0.5609003305435181,-0.23433341085910797,-0.5751889944076538
1737749708656941600,4.850941650390625,0.5898352861404419,-0.3117024898529053,-0.6495641469955444
1737749708667008500,4.861008544921875,0.5850887894630432,-0.42278987169265747,-0.7184827923774719
1737749708677075700,4.87107568359375,0.5258161425590515,-0.5721316933631897,-0.7524503469467163
1737749708687143700,4.881143798828125,0.41140830516815186,-0.7249007225036621,-0.7860855460166931
1737749708697211000,4.8912109375,0.24575330317020416,-0.8375369906425476,-0.8378185033798218
1737749708707277800,4.90127783203125,0.08890856802463531,-0.895186722278595,-0.8575349450111389
1737749708717345800,4.911345703125,0.009165801107883453,-0.8932244777679443,-0.8133589625358582
1737749708727412700,4.921412841796875,0.03268737345933914,-0.788118839263916,-0.7363645434379578
1737749708737479700,4.931479736328125,0.1632416546344757,-0.5865982174873352,-0.6948552131652832
1737749708747547600,4.941547607421875,0.3650565445423126,-0.3693964183330536,-0.6907917857170105
1737749708757614600,4.951614501953125,0.5892068147659302,-0.1686028689146042,-0.708246648311615
1737749708767681500,4.961681640625,0.7777924537658691,-0.014808240346610546,-0.7358798980712891
1737749708777748500,4.97174853515625,0.8795563578605652,0.09599177539348602,-0.7563561201095581
1737749708787816700,4.981816650390625,0.8845420479774475,0.16767795383930206,-0.7559326887130737
1737749708797883600,4.991883544921875,0.8426188230514526,0.22065328061580658,-0.7412173748016357
1737749708807950800,5.001950927734375,0.8078973293304443,0.27208212018013,-0.7297985553741455
1737749708818018600,5.0120185546875,0.7927343845367432,0.30926036834716797,-0.7344793081283569
1737749708828085800,5.022085693359375,0.781773567199707,0.3091796934604645,-0.7482848763465881
1737749708838152700,5.032152587890625,0.7791927456855774,0.25056323409080505,-0.7528330087661743
1737749708848219600,5.0422197265625,0.7817459106445312,0.15802133083343506,-0.77280193567276
1737749708858287900,5.052287841796875,0.7800800800323486,0.05763453245162964,-0.8219391107559204
1737749708868354800,5.062354736328125,0.7311796545982361,-0.0553777702152729,-0.8897650241851807
1737749708878421800,5.072421875,0.640036940574646,-0.180367112159729,-0.9432804584503174
1737749708888489700,5.08248974609375,0.5357526540756226,-0.31251874566078186,-0.9775716066360474
1737749708898556700,5.092556640625,0.4558231830596924,-0.4117313623428345,-0.9897403717041016
1737749708908623600,5.10262353515625,0.404075026512146,-0.4809354543685913,-1.0206133127212524
1737749708918691600,5.112691650390625,0.3659699857234955,-0.5511374473571777,-1.0661132335662842
1737749708928758500,5.122758544921875,0.3221532702445984,-0.6252050399780273,-1.1320202350616455
1737749708938825700,5.13282568359375,0.2668290436267853,-0.6913110613822937,-1.1950509548187256
1737749708948892700,5.142892578125,0.18508782982826233,-0.7494260668754578,-1.2165652513504028
1737749708958961000,5.1529609375,0.11196275055408478,-0.7795352339744568,-1.1813225746154785
1737749708969027800,5.16302783203125,0.06510789692401886,-0.7893961071968079,-1.128076434135437
1737749708979094800,5.1730947265625,0.032410938292741776,-0.7909388542175293,-1.0787043571472168
1737749708989162800,5.183162841796875,0.028508873656392097,-0.7997592687606812,-1.01621675491333
1737749708999229700,5.193229736328125,0.04958220198750496,-0.7604305148124695,-0.9310333728790283
1737749709009296600,5.203296630859375,0.09581893682479858,-0.7019338607788086,-0.8130002021789551
1737749709019364600,5.213364501953125,0.14205195009708405,-0.531982421875,-0.6879025101661682
1737749709029431600,5.223431640625,0.16661614179611206,-0.30078834295272827,-0.601175844669342
1737749709039498800,5.233498779296875,0.16881032288074493,-0.06567328423261642,-0.5607770085334778
1737749709049565700,5.243565673828125,0.1385139375925064,0.13122007250785828,-0.5344823002815247
1737749709059633700,5.253633544921875,0.06328203529119492,0.25999242067337036,-0.4747273623943329
1737749709069700600,5.26370068359375,-0.03278378024697304,0.33365175127983093,-0.3615427613258362
1737749709079767800,5.273767822265625,-0.09016185253858566,0.3866744637489319,-0.2666599154472351
1737749709089835500,5.28383544921875,-0.08599879592657089,0.40824955701828003,-0.18065659701824188
1737749709099902700,5.29390283203125,-0.06554891914129257,0.4479641914367676,-0.0704328864812851
1737749709109969700,5.3039697265625,-0.11804834008216858,0.6047391891479492,0.1072673350572586
1737749709120038000,5.314037841796875,-0.20555715262889862,0.9621079564094543,0.37954679131507874
1737749709130104800,5.324104736328125,-0.26280471682548523,1.4725559949874878,0.6901046633720398
1737749709140171800,5.334171875,-0.2655496597290039,2.120469331741333,0.9993898272514343
1737749709150238700,5.34423876953125,-0.20217254757881165,2.7267634868621826,1.2594690322875977
1737749709160306700,5.354306640625,-0.03257392346858978,3.281395435333252,1.449583888053894
1737749709170373600,5.36437353515625,0.2917301058769226,3.7455568313598633,1.5452840328216553
1737749709180440600,5.374440673828125,0.7475572824478149,4.077992916107178,1.5485607385635376
1737749709190508500,5.384508544921875,1.2328760623931885,4.219807147979736,1.5112941265106201
1737749709200575500,5.394575439453125,1.6402438879013062,4.210340976715088,1.4936964511871338
1737749709210642700,5.404642578125,1.9300119876861572,4.124689102172852,1.533572793006897
1737749709220710700,5.414710693359375,2.10388445854187,4.008617877960205,1.6344906091690063
1737749709230777300,5.42477734375,2.198841094970703,3.8888742923736572,1.7750279903411865
1737749709240844300,5.43484423828125,2.22379994392395,3.7778236865997314,1.9063655138015747
1737749709250912300,5.444912353515625,2.1969850063323975,3.668487310409546,2.007218360900879
1737749709260979200,5.454979248046875,2.1382546424865723,3.544440984725952,2.1075446605682373
1737749709271046100,5.465046142578125,2.0897862911224365,3.4461443424224854,2.2714850902557373
1737749709281113000,5.475113037109375,2.085834503173828,3.4093801975250244,2.5557050704956055
1737749709291181000,5.48518115234375,2.197539806365967,3.4732229709625244,2.88423752784729
1737749709301248000,5.495248046875,2.45005202293396,3.582561731338501,3.0233097076416016
1737749709311315000,5.50531494140625,2.6171281337738037,3.500422716140747,2.8685104846954346
1737749709321383200,5.515383056640625,2.376037836074829,2.981858968734741,2.733499050140381
1737749709331450000,5.5254501953125,1.860695481300354,2.283726930618286,2.8680286407470703
1737749709341517300,5.535517333984375,1.4205130338668823,1.6935323476791382,3.083091974258423
1737749709351585000,5.5455849609375,1.221109390258789,1.270860195159912,3.1318840980529785
1737749709361652200,5.55565234375,1.2157007455825806,0.9055589437484741,2.97735595703125
1737749709371719200,5.56571923828125,1.1894865036010742,0.6419235467910767,2.6719088554382324
1737749709381786000,5.5757861328125,1.0405439138412476,0.4710961580276489,2.4158456325531006
1737749709391854000,5.58585400390625,0.87501460313797,0.37897661328315735,2.337928295135498
1737749709401921300,5.59592138671875,0.776911199092865,0.41044852137565613,2.401616334915161
1737749709411988200,5.60598828125,0.7735852003097534,0.6102849245071411,2.48732590675354
1737749709422056200,5.61605615234375,0.8477382063865662,0.963856041431427,2.4887354373931885
1737749709432123100,5.626123046875,0.8864006996154785,1.353211522102356,2.4007656574249268
1737749709442190000,5.636190185546875,0.8019523620605469,1.65119469165802,2.2897961139678955
1737749709452258000,5.646258056640625,0.6089328527450562,1.7976428270339966,2.2503905296325684
1737749709462325000,5.656324951171875,0.3796650469303131,1.8205558061599731,2.3087782859802246
1737749709472392200,5.66639208984375,0.14788374304771423,1.7476727962493896,2.3923473358154297
1737749709482459100,5.676459228515625,-0.05006636306643486,1.5799927711486816,2.4442543983459473
1737749709492527400,5.68652734375,-0.1857895702123642,1.3516855239868164,2.4039466381073
1737749709502594300,5.69659423828125,-0.2649048864841461,1.0815693140029907,2.2867519855499268
1737749709512661200,5.7066611328125,-0.3252713084220886,0.8386989235877991,2.1158154010772705
1737749709522729200,5.716729248046875,-0.3979912996292114,0.659153163433075,1.932571291923523
1737749709532796200,5.726796142578125,-0.48436614871025085,0.55246901512146,1.747718334197998
1737749709542863000,5.736863037109375,-0.5661483407020569,0.45488202571868896,1.575648307800293
1737749709552931000,5.74693115234375,-0.6256572008132935,0.43913209438323975,1.4600255489349365
1737749709562998000,5.756998046875,-0.6423991918563843,0.5166891813278198,1.3865915536880493
1737749709573065000,5.76706494140625,-0.6068505048751831,0.7047906517982483,1.340111494064331
1737749709583132200,5.777132080078125,-0.5481991767883301,0.9551315307617188,1.3100666999816895
1737749709593200000,5.7872001953125,-0.48567643761634827,1.254734754562378,1.2970198392868042
1737749709603267000,5.79726708984375,-0.44295239448547363,1.5596365928649902,1.27495539188385
1737749709613334300,5.807334228515625,-0.4022694230079651,1.787998914718628,1.2103766202926636
1737749709623402200,5.81740234375,-0.3196299374103546,1.8757983446121216,1.1046797037124634
1737749709633469200,5.82746923828125,-0.16432049870491028,1.847079873085022,1.0015413761138916
1737749709643536100,5.8375361328125,0.009545302018523216,1.7404838800430298,0.9019239544868469
1737749709653604400,5.847604248046875,0.12553155422210693,1.6123874187469482,0.8511952757835388
1737749709663671300,5.85767138671875,0.12587617337703705,1.4904325008392334,0.7699840664863586
1737749709673738200,5.86773828125,0.04391445964574814,1.3227444887161255,0.6517346501350403
1737749709683806200,5.87780615234375,-0.045634862035512924,1.082128643989563,0.5602148175239563
1737749709693873200,5.887873046875,-0.08013824373483658,0.7874898314476013,0.4536290168762207
1737749709703940000,5.897940185546875,-0.061885472387075424,0.4736112356185913,0.3346078097820282
1737749709714007000,5.908007080078125,-0.030060963705182076,0.1523602455854416,0.18856191635131836
1737749709724075000,5.918074951171875,-0.02052205242216587,-0.1395682841539383,0.0005427522119134665
1737749709734142000,5.928141845703125,-0.04116048663854599,-0.3873178958892822,-0.1763092577457428
1737749709744209200,5.938209228515625,-0.06709035485982895,-0.5523254871368408,-0.3162325322628021
1737749709754277000,5.948277099609375,-0.0966450497508049,-0.5565615296363831,-0.39973515272140503
1737749709764344300,5.95834423828125,-0.13952034711837769,-0.3683338165283203,-0.38851603865623474
1737749709774411300,5.968411376953125,-0.2527976334095001,-0.05224589258432388,-0.3490533232688904
1737749709784479200,5.978479248046875,-0.41146984696388245,0.2737535238265991,-0.3127882778644562
1737749709794546200,5.988546142578125,-0.561344563961029,0.5048836469650269,-0.3082409203052521
1737749709804613000,5.998613037109375,-0.6264665722846985,0.6208568811416626,-0.3361114263534546
1737749709814681000,6.00868115234375,-0.5907309651374817,0.6360976099967957,-0.36923742294311523
1737749709824748000,6.018748046875,-0.4819653034210205,0.598637044429779,-0.39378246665000916
1737749709834815200,6.028815185546875,-0.37502580881118774,0.4968965947628021,-0.43882423639297485
1737749709844882200,6.038882080078125,-0.31467804312705994,0.33593860268592834,-0.5098459124565125
1737749709854950100,6.0489501953125,-0.29042622447013855,0.14157924056053162,-0.5820029377937317
1737749709865017000,6.05901708984375,-0.2811456620693207,-0.029533924534916878,-0.6415743827819824
1737749709875084300,6.069084228515625,-0.32794085144996643,-0.1254900097846985,-0.7426722645759583
1737749709885152000,6.079152099609375,-0.45019859075546265,-0.1735115945339203,-0.8924772143363953
1737749709895219200,6.08921923828125,-0.6079338788986206,-0.17905284464359283,-1.0420461893081665
1737749709905286100,6.0992861328125,-0.7217483520507812,-0.12081722915172577,-1.140256404876709
1737749709915354400,6.109354248046875,-0.7385765910148621,-0.02924523688852787,-1.1662863492965698
1737749709925421300,6.11942138671875,-0.6579909324645996,0.08832506835460663,-1.138012170791626
1737749709935488300,6.12948828125,-0.49905136227607727,0.25230708718299866,-1.0791847705841064
1737749709945556200,6.13955615234375,-0.30234256386756897,0.4501543939113617,-1.0239702463150024
1737749709955623200,6.149623046875,-0.10715202242136002,0.6515189409255981,-1.0159653425216675
1737749709965690000,6.159690185546875,0.061519552022218704,0.771160364151001,-1.0409263372421265
1737749709975757000,6.169757080078125,0.16374099254608154,0.7322784662246704,-1.0761735439300537
1737749709985825000,6.179824951171875,0.1926852911710739,0.5510035157203674,-1.1059393882751465
1737749709995892000,6.18989208984375,0.17051927745342255,0.30051642656326294,-1.1254971027374268
1737749710005959200,6.199959228515625,0.11390633136034012,0.055082958191633224,-1.144958734512329
1737749710016027100,6.210027099609375,0.04057192802429199,-0.14748026430606842,-1.163926601409912
1737749710026094000,6.220093994140625,-0.034979287534952164,-0.30500492453575134,-1.1751089096069336
1737749710036161300,6.230161376953125,-0.0790838971734047,-0.42925068736076355,-1.1790591478347778
1737749710046229200,6.240229248046875,-0.09660270810127258,-0.4964664876461029,-1.1772018671035767
1737749710056296200,6.250296142578125,-0.10545744746923447,-0.47950854897499084,-1.1822839975357056
1737749710066363100,6.260363037109375,-0.11579930037260056,-0.42329028248786926,-1.1842360496520996
1737749710076431400,6.270431396484375,-0.12615953385829926,-0.3703397214412689,-1.1896287202835083
1737749710086498300,6.280498291015625,-0.16839247941970825,-0.3258950114250183,-1.1943573951721191
1737749710096565200,6.290565185546875,-0.23919527232646942,-0.2894382178783417,-1.2085206508636475
1737749710106632200,6.300632080078125,-0.335589200258255,-0.25366395711898804,-1.2271393537521362
1737749710116700200,6.3107001953125,-0.42911913990974426,-0.2266765534877777,-1.2446043491363525
1737749710126767000,6.32076708984375,-0.5017656683921814,-0.18342521786689758,-1.2653157711029053
1737749710136834000,6.330833984375,-0.5622835755348206,-0.12756940722465515,-1.2901207208633423
1737749710146902000,6.340902099609375,-0.6105576157569885,-0.03616226464509964,-1.3161853551864624
1737749710156969000,6.350968994140625,-0.6471018195152283,0.03430311381816864,-1.3023205995559692
1737749710167036200,6.3610361328125,-0.6682185530662537,0.04789721965789795,-1.2622177600860596
1737749710177104100,6.371104248046875,-0.6635057926177979,0.047752607613801956,-1.2426061630249023
1737749710187171300,6.38117138671875,-0.6483239531517029,0.059910472482442856,-1.2581745386123657
1737749710197238300,6.39123828125,-0.6112111806869507,0.08512847870588303,-1.266832947731018
1737749710207305200,6.40130517578125,-0.5602153539657593,0.13983353972434998,-1.2838897705078125
1737749710217373200,6.411373291015625,-0.5357193350791931,0.21323344111442566,-1.3244235515594482
1737749710227440000,6.421440185546875,-0.5416582226753235,0.28500109910964966,-1.343421220779419
1737749710237507000,6.431507080078125,-0.555156946182251,0.3501582741737366,-1.347807765007019
1737749710247575000,6.441574951171875,-0.5835654139518738,0.4070127606391907,-1.353797435760498
1737749710257642000,6.45164208984375,-0.6055296063423157,0.4655466675758362,-1.3767964839935303
1737749710267709000,6.461708984375,-0.620307207107544,0.5313344597816467,-1.4105321168899536
1737749710277777000,6.47177685546875,-0.6023058295249939,0.6128527522087097,-1.4304107427597046
1737749710287843800,6.48184375,-0.5743522047996521,0.7228543758392334,-1.4254831075668335
1737749710297911000,6.4919111328125,-0.5502346158027649,0.8522583842277527,-1.398268222808838
1737749710307979000,6.50197900390625,-0.5501763224601746,0.9904235005378723,-1.3888427019119263
1737749710318046200,6.512046142578125,-0.5694839954376221,1.1130354404449463,-1.392137050628662
1737749710328113200,6.522113037109375,-0.6106727123260498,1.200775146484375,-1.390867829322815
1737749710338180000,6.53218017578125,-0.6611321568489075,1.2731971740722656,-1.401856541633606
1737749710348248000,6.542248046875,-0.7243254780769348,1.310786247253418,-1.4168730974197388
1737749710358315000,6.55231494140625,-0.8117266893386841,1.3119759559631348,-1.4176613092422485
1737749710368382000,6.5623818359375,-0.903481125831604,1.2908754348754883,-1.4050127267837524
1737749710378450000,6.572449951171875,-0.9747481346130371,1.279929280281067,-1.3812215328216553
1737749710388517000,6.58251708984375,-1.0067713260650635,1.2788193225860596,-1.357100486755371
1737749710398584000,6.592583984375,-0.9716237187385559,1.2520726919174194,-1.3332226276397705
1737749710408652000,6.602652099609375,-0.8792732357978821,1.1987944841384888,-1.30509614944458
1737749710418719000,6.612718994140625,-0.7939128279685974,1.1396137475967407,-1.303501009941101
1737749710428786000,6.622785888671875,-0.7849403619766235,1.0526639223098755,-1.3429149389266968
1737749710438853000,6.63285302734375,-0.8341981768608093,0.9463779926300049,-1.3827416896820068
1737749710448921000,6.642921142578125,-0.8791062831878662,0.912448525428772,-1.30807626247406
1737749710458988000,6.652988037109375,-0.8770883679389954,1.0352671146392822,-1.0751687288284302
1737749710469055000,6.663054931640625,-0.8595056533813477,1.2686662673950195,-0.8239684700965881
1737749710479123200,6.673123291015625,-0.8699386119842529,1.460960865020752,-0.7708013653755188
1737749710489190100,6.683190185546875,-0.9116261601448059,1.6700893640518188,-0.9143526554107666
1737749710499257000,6.693257080078125,-0.9787399172782898,1.8928459882736206,-1.1123759746551514
1737749710509325000,6.703324951171875,-1.0225310325622559,1.8929133415222168,-1.2227305173873901
1737749710519392000,6.71339208984375,-1.045736312866211,1.628682017326355,-1.2831647396087646
1737749710529459000,6.723458984375,-1.0743769407272339,1.2971503734588623,-1.3135833740234375
1737749710539527000,6.73352685546875,-1.0971360206604004,1.0364338159561157,-1.346864938735962
1737749710549593900,6.74359375,-1.1074124574661255,0.812997043132782,-1.387191891670227
1737749710559660800,6.753660888671875,-1.0995584726333618,0.6480887532234192,-1.4212260246276855
1737749710569728300,6.763728271484375,-1.0635136365890503,0.5748507976531982,-1.4166730642318726
1737749710579796000,6.7737958984375,-1.0157290697097778,0.5644314289093018,-1.390334129333496
1737749710589863200,6.78386328125,-0.9822161197662354,0.560078501701355,-1.370613932609558
1737749710599930000,6.79393017578125,-0.9944664239883423,0.5863186120986938,-1.3787586688995361
1737749710609998000,6.803998046875,-1.0533430576324463,0.6946144700050354,-1.3860608339309692
1737749710620065000,6.81406494140625,-1.1132609844207764,0.8306851983070374,-1.379725456237793
1737749710630132000,6.824132080078125,-1.1374385356903076,0.9403720498085022,-1.3752260208129883
1737749710640200200,6.8342001953125,-1.1336970329284668,0.9997067451477051,-1.369627833366394
1737749710650267100,6.84426708984375,-1.1055785417556763,1.0055515766143799,-1.3468239307403564
1737749710660334000,6.854333984375,-1.0524711608886719,0.9476126432418823,-1.2905899286270142
1737749710670402000,6.864402099609375,-0.9794736504554749,0.8290665149688721,-1.2226388454437256
1737749710680469000,6.874468994140625,-0.8955212235450745,0.6563552021980286,-1.1583826541900635
1737749710690536000,6.884535888671875,-0.8044679760932922,0.4661876857280731,-1.092656135559082
1737749710700603100,6.89460302734375,-0.7267976999282837,0.3001323938369751,-1.0191051959991455
1737749710710670800,6.9046708984375,-0.6840012073516846,0.17875003814697266,-0.9255997538566589
1737749710720738000,6.914738037109375,-0.6748165488243103,0.11311190575361252,-0.8616284728050232
1737749710730805000,6.924804931640625,-0.6901909708976746,0.11655724048614502,-0.836388349533081
1737749710740873200,6.934873291015625,-0.7038183212280273,0.14218057692050934,-0.8479850888252258
1737749710750940200,6.944940185546875,-0.726021409034729,0.14099813997745514,-0.8636447787284851
1737749710761007000,6.955007080078125,-0.7489475011825562,0.10645054280757904,-0.8515684008598328
1737749710771075000,6.965074951171875,-0.7667917013168335,0.04063611105084419,-0.7915319204330444
1737749710781142000,6.97514208984375,-0.7695741653442383,-0.06195977330207825,-0.7080565094947815
1737749710791209000,6.985208984375,-0.7754920125007629,-0.21131090819835663,-0.6260029077529907
1737749710801277000,6.99527685546875,-0.7765346169471741,-0.37354856729507446,-0.557609498500824
1737749710811344100,7.00534423828125,-0.7517914772033691,-0.5221100449562073,-0.4955980181694031
1737749710821411000,7.0154111328125,-0.7083366513252258,-0.6449111104011536,-0.4409278631210327
1737749710831478000,7.02547802734375,-0.6579446196556091,-0.7210401892662048,-0.42350438237190247
1737749710841546000,7.0355458984375,-0.5990735292434692,-0.7480528950691223,-0.39406582713127136
1737749710851613000,7.045613037109375,-0.5372962355613708,-0.7351802587509155,-0.3394547700881958
1737749710861680000,7.05568017578125,-0.45525380969047546,-0.6719070076942444,-0.2778784930706024
1737749710871748000,7.065748046875,-0.34110406041145325,-0.5948005318641663,-0.21476423740386963
1737749710881815000,7.07581494140625,-0.21110664308071136,-0.5559594035148621,-0.14111530780792236
1737749710891882000,7.085882080078125,-0.10705774277448654,-0.5728773474693298,-0.07499754428863525
1737749710901950200,7.0959501953125,-0.020665330812335014,-0.5816213488578796,-0.025793246924877167
1737749710912017200,7.10601708984375,0.06780807673931122,-0.5444534420967102,0.01810416951775551
1737749710922084000,7.116083984375,0.18048375844955444,-0.5219364166259766,0.055984172970056534
1737749710932151000,7.126151123046875,0.3057149052619934,-0.5253543257713318,0.08125730603933334
1737749710942219000,7.136218994140625,0.416061133146286,-0.5455940961837769,0.07439354062080383
1737749710952286000,7.146285888671875,0.4808869957923889,-0.5962181091308594,0.058514177799224854
1737749710962353000,7.156352783203125,0.4984140694141388,-0.6623822450637817,0.07787961512804031
1737749710972420900,7.1664208984375,0.4976364076137543,-0.6980424523353577,0.10153301805257797
1737749710982487800,7.17648779296875,0.5007949471473694,-0.7131383419036865,0.11790027469396591
1737749710992555300,7.18655517578125,0.521900475025177,-0.7394493222236633,0.14322613179683685
1737749711002623000,7.196623046875,0.5574169158935547,-0.7681310176849365,0.17065270245075226
1737749711012690200,7.206690185546875,0.5846096873283386,-0.7985097169876099,0.20707514882087708
1737749711022757000,7.216757080078125,0.6076321601867676,-0.8400899171829224,0.24740339815616608
1737749711032825000,7.2268251953125,0.6419073343276978,-0.8829787969589233,0.25034406781196594
1737749711042892000,7.23689208984375,0.6631249785423279,-0.9146970510482788,0.24041180312633514
1737749711052959000,7.246958984375,0.6599329113960266,-0.9357969760894775,0.2271505892276764
1737749711063026000,7.25702587890625,0.6260426044464111,-0.9622661471366882,0.20173205435276031
1737749711073094100,7.26709423828125,0.586230456829071,-0.9719305038452148,0.1957159787416458
1737749711083161000,7.2771611328125,0.5751575827598572,-0.9609124660491943,0.1936996877193451
1737749711093228000,7.28722802734375,0.5809201002120972,-0.9805282354354858,0.19222137331962585
1737749711103296000,7.2972958984375,0.5767757296562195,-1.0134457349777222,0.18078017234802246
1737749711113363000,7.307363037109375,0.5700411200523376,-1.047224760055542,0.16818182170391083
1737749711123430000,7.317429931640625,0.5582883358001709,-1.107972502708435,0.16857010126113892
1737749711133497900,7.327497802734375,0.564111053943634,-1.1941713094711304,0.1893206536769867
1737749711143565000,7.33756494140625,0.5723996162414551,-1.270033836364746,0.1952698975801468
1737749711153632000,7.347632080078125,0.5572707056999207,-1.3122239112854004,0.2060903161764145
1737749711163700200,7.3577001953125,0.5177973508834839,-1.3176276683807373,0.2067265510559082
1737749711173767200,7.36776708984375,0.48961523175239563,-1.3046232461929321,0.21445584297180176
1737749711183834000,7.377834228515625,0.49101686477661133,-1.3053086996078491,0.22808483242988586
1737749711193901000,7.387901123046875,0.517487645149231,-1.3218560218811035,0.2186093032360077
1737749711203969000,7.397968994140625,0.5488585829734802,-1.3056751489639282,0.16596393287181854
1737749711214036000,7.408035888671875,0.5756526589393616,-1.248233675956726,0.11827550828456879
1737749711224103000,7.41810302734375,0.604092001914978,-1.1724214553833008,0.0743035227060318
1737749711234175200,7.42817529296875,0.6271395683288574,-1.0802422761917114,0.03599128872156143
1737749711244242200,7.4382421875,0.6346390247344971,-0.9767225980758667,-0.01465564128011465
1737749711254309000,7.44830908203125,0.6223916411399841,-0.858120322227478,-0.051779307425022125
1737749711264377000,7.458377197265625,0.6152618527412415,-0.726038932800293,-0.06907760351896286
1737749711274444000,7.468444091796875,0.6243512034416199,-0.6103911995887756,-0.049006689339876175
1737749711284511000,7.478510986328125,0.598781406879425,-0.5509025454521179,-0.012781841680407524
1737749711294578400,7.488578369140625,0.5519571900367737,-0.5559801459312439,0.009412409737706184
1737749711304646100,7.498646240234375,0.5286156535148621,-0.5981358289718628,0.030714236199855804
1737749711314713300,7.50871337890625,0.5369713306427002,-0.6762450337409973,0.0359119288623333
1737749711324780300,7.5187802734375,0.5295940637588501,-0.8183598518371582,0.02605263888835907
1737749711334848300,7.52884814453125,0.4920983612537384,-0.9887827038764954,0.015535816550254822
1737749711344915200,7.538915283203125,0.44310978055000305,-1.1328133344650269,-0.005742041394114494
1737749711354982100,7.548982177734375,0.4108740985393524,-1.2237893342971802,-0.04021186754107475
1737749711365050400,7.55905029296875,0.3856017589569092,-1.30202317237854,-0.09389373660087585
1737749711375117300,7.569117431640625,0.3099466860294342,-1.406311273574829,-0.2121676504611969
1737749711385184300,7.579184326171875,0.12693770229816437,-1.4719959497451782,-0.35980263352394104
1737749711395252200,7.589252197265625,-0.0601847767829895,-1.3412115573883057,-0.4214007556438446
1737749711405319200,7.599319091796875,-0.11548345535993576,-0.9784871935844421,-0.3260268270969391
1737749711415386000,7.60938623046875,0.0008165251929312944,-0.5729982852935791,-0.22777989506721497
1737749711425453300,7.619453369140625,0.19810083508491516,-0.2615775465965271,-0.163145512342453
1737749711435521000,7.62952099609375,0.3776865601539612,-0.07727614790201187,-0.1250724345445633
1737749711445588200,7.639588134765625,0.47417449951171875,-0.019960392266511917,-0.12785597145557404
1737749711455655200,7.6496552734375,0.49447017908096313,-0.05197425186634064,-0.14509673416614532
1737749711465723400,7.659723388671875,0.4761982262134552,-0.16464939713478088,-0.18062250316143036
1737749711475790300,7.669790283203125,0.4447430968284607,-0.3418971598148346,-0.21326620876789093
1737749711485857300,7.679857177734375,0.426223486661911,-0.56561678647995,-0.23613476753234863
1737749711495925200,7.68992529296875,0.417594850063324,-0.8154857754707336,-0.2450861930847168
1737749711505992200,7.6999921875,0.4011349081993103,-1.0371944904327393,-0.25274011492729187
1737749711516059100,7.71005908203125,0.3599312901496887,-1.1891727447509766,-0.2796657383441925
1737749711526126000,7.7201259765625,0.3107967674732208,-1.2814198732376099,-0.31964775919914246
1737749711536194000,7.730194091796875,0.2648087441921234,-1.3390491008758545,-0.3538358211517334
1737749711546261200,7.74026123046875,0.2269711047410965,-1.3482673168182373,-0.3430452346801758
1737749711556328200,7.750328125,0.2042711079120636,-1.3047313690185547,-0.30805981159210205
1737749711566396200,7.760396240234375,0.18601487576961517,-1.215721607208252,-0.2715444266796112
1737749711576463000,7.770463134765625,0.17898492515087128,-1.1060088872909546,-0.23534168303012848
1737749711586530300,7.7805302734375,0.19642969965934753,-1.0165534019470215,-0.2043512761592865
1737749711596598300,7.790598388671875,0.2208772599697113,-0.9795988202095032,-0.18432269990444183
1737749711606665200,7.800665283203125,0.24346591532230377,-0.9717342257499695,-0.16792349517345428
1737749711616732200,7.810732177734375,0.2577258050441742,-0.9816563725471497,-0.1642691045999527
1737749711626799000,7.820799072265625,0.2792191207408905,-0.9737520813941956,-0.11690398305654526
1737749711636867300,7.830867431640625,0.29948070645332336,-0.9391219615936279,-0.016414659097790718
1737749711646934300,7.840934326171875,0.32212159037590027,-0.8263410925865173,0.08071188628673553
1737749711657001200,7.851001220703125,0.3464828431606293,-0.6537493467330933,0.1580921709537506
1737749711667069200,7.861069091796875,0.38243818283081055,-0.49825987219810486,0.20423541963100433
1737749711677136100,7.87113623046875,0.41672131419181824,-0.40532246232032776,0.22499848902225494
1737749711687203000,7.881203125,0.4653831422328949,-0.36803555488586426,0.2595948278903961
1737749711697271000,7.89127099609375,0.5362924337387085,-0.3830970525741577,0.297713965177536
1737749711707338000,7.901337890625,0.606110692024231,-0.45575234293937683,0.32625535130500793
1737749711717405200,7.9114052734375,0.6642336249351501,-0.5670564770698547,0.3285171687602997
1737749711727472400,7.921472412109375,0.6698569059371948,-0.7191269993782043,0.31354621052742004
1737749711737540400,7.931540283203125,0.6412234306335449,-0.8765765428543091,0.29150694608688354
1737749711747607300,7.941607177734375,0.6111581921577454,-0.982610285282135,0.2845070958137512
1737749711757674200,7.95167431640625,0.6019780039787292,-1.0100557804107666,0.2697579860687256
1737749711767742200,7.9617421875,0.6061480045318604,-0.9765481352806091,0.2683829963207245
1737749711777809200,7.97180908203125,0.5847463011741638,-0.9253347516059875,0.27584969997406006
1737749711787876000,7.9818759765625,0.49899569153785706,-0.8658517003059387,0.2784654498100281
1737749711797944300,7.9919443359375,0.3656911551952362,-0.7972550988197327,0.29316022992134094
1737749711808011300,8.00201123046875,0.22502459585666656,-0.6958259344100952,0.3225889801979065
1737749711818078200,8.012078125,0.10184726864099503,-0.5809536576271057,0.34284284710884094
1737749711828145200,8.022145263671876,0.019895942881703377,-0.5139802098274231,0.37478265166282654
1737749711838213000,8.032213134765625,-0.060989849269390106,-0.5396121144294739,0.4007684588432312
1737749711848280000,8.042280029296874,-0.16171592473983765,-0.6380316019058228,0.43750888109207153
1737749711858347300,8.05234716796875,-0.29854273796081543,-0.7668596506118774,0.471578449010849
1737749711868415200,8.062415283203125,-0.42858678102493286,-0.9187964200973511,0.5308505296707153
1737749711878482200,8.072482177734376,-0.4910197854042053,-0.9998174905776978,0.6182520389556885
1737749711888549000,8.082549072265625,-0.4807263910770416,-0.97908616065979,0.7283939719200134
1737749711898617300,8.092617431640624,-0.4148786962032318,-0.8822333812713623,0.8425397276878357
1737749711908684300,8.102684326171875,-0.30776527523994446,-0.736634373664856,0.9577547311782837
1737749711918751200,8.112751220703124,-0.1647396832704544,-0.5661406517028809,1.0432597398757935
1737749711928818200,8.122818115234375,-0.007277354132384062,-0.3602156937122345,1.0997960567474365
1737749711938886100,8.13288623046875,0.10049118846654892,-0.16139236092567444,1.1368802785873413
1737749711948953000,8.142953125,0.18831291794776917,0.05727127939462662,1.1482110023498535
1737749711959020000,8.15302001953125,0.25926777720451355,0.34170007705688477,1.1724063158035278
1737749711969088300,8.163088134765625,0.34222686290740967,0.6461129784584045,1.1900618076324463
1737749711979155200,8.1731552734375,0.42087239027023315,0.8806011080741882,1.2042348384857178
1737749711989222400,8.183222412109375,0.4131697416305542,1.066809892654419,1.2431963682174683
1737749711999290000,8.1932900390625,0.3332352340221405,1.1861423254013062,1.3133498430252075
1737749712009357300,8.203357421875,0.2275809645652771,1.2419923543930054,1.409838318824768
1737749712019424300,8.21342431640625,0.1494225114583969,1.197348713874817,1.519226312637329
1737749712029491200,8.2234912109375,0.09183911234140396,1.0333094596862793,1.5829060077667236
1737749712039559200,8.23355908203125,0.039516251534223557,0.8036120533943176,1.6202818155288696
1737749712049626000,8.243626220703124,-0.007669371087104082,0.5836815237998962,1.6362956762313843
1737749712059693000,8.253693115234375,-0.06331825256347656,0.4066830575466156,1.6425093412399292
1737749712069761300,8.26376123046875,-0.12208756059408188,0.2808516323566437,1.6627984046936035
1737749712079828200,8.273828125,-0.1616797149181366,0.21083766222000122,1.6677998304367065
1737749712089895200,8.283895263671875,-0.19314655661582947,0.18539303541183472,1.647500991821289
1737749712099963100,8.293963134765624,-0.2251439094543457,0.1827852576971054,1.6236227750778198
1737749712110030000,8.304030029296875,-0.25953009724617004,0.18583963811397552,1.5905265808105469
1737749712120097300,8.31409716796875,-0.28915935754776,0.19017979502677917,1.5618350505828857
1737749712130164200,8.324164306640625,-0.27930355072021484,0.18900880217552185,1.5602028369903564
1737749712140232200,8.334232177734375,-0.21436449885368347,0.1768043339252472,1.5444629192352295
1737749712150299400,8.34429931640625,-0.11458756774663925,0.16916319727897644,1.5129774808883667
1737749712160366300,8.354366455078125,-0.062013570219278336,0.14829093217849731,1.4983476400375366
1737749712170434300,8.364434326171875,-0.10237137973308563,0.12180819362401962,1.5032979249954224
1737749712180501200,8.374501220703126,-0.190473273396492,0.11067298799753189,1.5086184740066528
1737749712190568200,8.384568115234375,-0.2545965909957886,0.12591664493083954,1.5084549188613892
1737749712200636200,8.39463623046875,-0.25306767225265503,0.17489297688007355,1.5174777507781982
1737749712210703000,8.404703125,-0.211822509765625,0.22708001732826233,1.5304811000823975
1737749712220770000,8.41477001953125,-0.14864008128643036,0.21384784579277039,1.5556412935256958
1737749712230837500,8.42483740234375,-0.06975298374891281,0.13810913264751434,1.5722395181655884
1737749712240905700,8.43490576171875,-0.02502252906560898,0.04035594314336777,1.5732808113098145
1737749712250972700,8.44497265625,-0.04664153605699539,-0.06314274668693542,1.585945963859558
1737749712261039600,8.45503955078125,-0.11610104143619537,-0.11318328231573105,1.600602626800537
1737749712271107600,8.465107666015625,-0.20826798677444458,-0.1266905665397644,1.594622015953064
1737749712281174800,8.4751748046875,-0.26795342564582825,-0.1438295990228653,1.5869166851043701
1737749712291241700,8.48524169921875,-0.2728174030780792,-0.15470463037490845,1.6174471378326416
1737749712301308700,8.49530859375,-0.24770726263523102,-0.11218113452196121,1.6631948947906494
1737749712311377000,8.505376953125,-0.20720085501670837,-0.029403962194919586,1.7053943872451782
1737749712321443800,8.51544384765625,-0.1334286332130432,0.0620545819401741,1.7332783937454224
1737749712331510800,8.5255107421875,-0.041183654218912125,0.14480619132518768,1.722775936126709
1737749712341578800,8.535578857421875,0.04074769467115402,0.2171592116355896,1.6734709739685059
1737749712351645700,8.545645751953124,0.08343470841646194,0.27040165662765503,1.6058320999145508
1737749712361712600,8.555712646484375,0.09310038387775421,0.3158556818962097,1.5483237504959106
1737749712371780600,8.565780517578125,0.09514888375997543,0.3677673637866974,1.5142028331756592
1737749712381847600,8.57584765625,0.08591011166572571,0.42394301295280457,1.4589166641235352
1737749712391914500,8.58591455078125,0.05578656494617462,0.44449010491371155,1.3837231397628784
1737749712401981700,8.595981689453126,0.026874490082263947,0.41566112637519836,1.3324064016342163
1737749712412049700,8.606049560546875,0.004087153356522322,0.3669806718826294,1.2933660745620728
1737749712422116900,8.616116943359375,-0.017106547951698303,0.3096342980861664,1.26136314868927
1737749712432183800,8.626183837890625,-0.013391438871622086,0.2248874455690384,1.2315101623535156
1737749712442251800,8.636251708984375,0.03524693846702576,0.14680436253547668,1.2112711668014526
1737749712452318700,8.646318603515626,0.08340620994567871,0.07464388012886047,1.1665441989898682
1737749712462385700,8.6563857421875,0.11341710388660431,0.01799657754600048,1.1018234491348267
1737749712472452600,8.66645263671875,0.10179880261421204,0.015112640336155891,1.0596520900726318
1737749712482520600,8.6765205078125,0.0035449336282908916,0.03292173147201538,1.004573106765747
1737749712492587800,8.686587890625,-0.12933161854743958,0.01404631044715643,1.006510853767395
1737749712502654700,8.69665478515625,-0.19803372025489807,-0.027645476162433624,0.9989493489265442
1737749712512722700,8.70672265625,-0.19482886791229248,-0.05019792169332504,1.0863138437271118
1737749712522789600,8.71678955078125,-0.18655550479888916,-0.07632752507925034,1.030135989189148
1737749712532856600,8.726856689453125,-0.19280993938446045,-0.10005789250135422,1.0349459648132324
1737749712542924500,8.736924560546875,-0.19853892922401428,-0.11780093610286713,0.9474043846130371
1737749712552991700,8.74699169921875,-0.23421916365623474,-0.13808757066726685,0.8229527473449707
1737749712563058700,8.75705859375,-0.27040964365005493,-0.11203359067440033,0.977601945400238
1737749712573125600,8.767125732421874,-0.2932382822036743,-0.07896459102630615,0.8088555335998535
1737749712583193900,8.77719384765625,-0.2697553038597107,-0.14737799763679504,0.6012150049209595
1737749712593260800,8.7872607421875,-0.18121665716171265,-0.23690655827522278,0.5682535767555237
1737749712603327700,8.79732763671875,-0.14755403995513916,-0.2361459583044052,0.43592938780784607
1737749712613395700,8.807395751953125,-0.15661278367042542,-0.21427953243255615,0.08968887478113174
1737749712623462700,8.817462646484374,-0.13218094408512115,-0.2553587853908539,-0.2874317765235901
1737749712633529600,8.827529541015625,-0.13457618653774261,-0.1763121783733368,-0.23273764550685883
1737749712643597600,8.83759765625,-0.32885804772377014,0.2859446704387665,0.0822322890162468
1737749712653664500,8.84766455078125,-0.6716185808181763,0.9298868775367737,0.30035290122032166
1737749712663731700,8.857731689453125,-1.0137325525283813,1.310707688331604,0.29274797439575195
1737749712673799000,8.867798828125,-1.0271047353744507,1.3673532009124756,0.1904383897781372
1737749712683866600,8.87786669921875,-0.7539395689964294,0.9672478437423706,-0.03768026828765869
1737749712693933800,8.887933837890625,-0.4852710962295532,0.20917852222919464,-0.25662192702293396
1737749712704000800,8.898000732421876,-0.32725989818573,-0.5735586285591125,-0.40328726172447205
1737749712714068700,8.90806884765625,-0.19094066321849823,-1.1972757577896118,-0.46478232741355896
1737749712724135700,8.9181357421875,-0.09147372096776962,-1.48464035987854,-0.5735231637954712
1737749712734202600,8.92820263671875,-0.053228601813316345,-1.4406721591949463,-0.6619307994842529
1737749712744270800,8.938270751953125,-0.10334529727697372,-1.113906741142273,-0.9070398807525635
1737749712754337800,8.948337890625,-0.1768096536397934,-0.6554404497146606,-1.0057291984558105
1737749712764404700,8.95840478515625,-0.15152348577976227,-0.09388521313667297,-0.8631872534751892
1737749712774471700,8.9684716796875,-0.18087230622768402,0.6529032588005066,-0.6530331969261169
1737749712784539600,8.97853955078125,-0.3706744611263275,1.4269685745239258,-0.29236340522766113
1737749712794606600,8.988606689453125,-0.6071740984916687,2.1109020709991455,0.2101076990365982
1737749712804673800,8.998673828125,-0.9032057523727417,2.7336370944976807,0.44619372487068176
1737749712814741500,9.008741455078125,-1.3983869552612305,3.248621940612793,0.3816456198692322
1737749712824808700,9.01880859375,-1.7479619979858398,2.860220432281494,0.2727194130420685
1737749712834875600,9.028875732421875,-1.4020930528640747,1.1998664140701294,0.28310227394104004
1737749712844944000,9.03894384765625,-0.6068084239959717,-0.8055604100227356,0.3372025191783905
1737749712855010800,9.0490107421875,-0.014707307331264019,-2.205862283706665,0.26625964045524597
1737749712865077800,9.059077880859375,0.16586805880069733,-2.8685173988342285,-0.016945693641901016
1737749712875144700,9.069144775390624,0.1168922632932663,-3.018871545791626,-0.1923140585422516
1737749712885212700,9.079212646484375,0.14769332110881805,-2.9978713989257812,-0.18197432160377502
1737749712895279600,9.089279541015625,0.25863367319107056,-2.9477126598358154,-0.1895984262228012
1737749712905346600,9.0993466796875,0.26143214106559753,-2.692960739135742,-0.250715047121048
1737749712915414800,9.109414794921875,0.11376012116670609,-2.147030830383301,-0.19653809070587158
1737749712925481700,9.119481689453124,-0.11059176176786423,-1.4255377054214478,-0.053099703043699265
1737749712935548700,9.129548583984375,-0.23682932555675507,-0.6958062052726746,0.08128633350133896
1737749712945616600,9.13961669921875,-0.17018212378025055,-0.08780601620674133,0.1950746774673462
1737749712955683600,9.14968359375,-0.0049188584089279175,0.34792786836624146,0.24483585357666016
1737749712965750800,9.159750732421875,0.13492053747177124,0.5790495276451111,0.27004027366638184
1737749712975817700,9.169817626953124,0.2009858340024948,0.6179508566856384,0.26792892813682556
1737749712985885700,9.1798857421875,0.21669901907444,0.5084304809570312,0.2080429494380951
1737749712995952600,9.18995263671875,0.21894672513008118,0.2838687300682068,0.11520488560199738
1737749713006019600,9.20001953125,0.21512696146965027,-0.00669332267716527,0.025131186470389366
1737749713016087800,9.210087890625,0.19918952882289886,-0.2733958661556244,-0.08266318589448929
1737749713026154800,9.22015478515625,0.195256307721138,-0.45305508375167847,-0.14678224921226501
1737749713036221700,9.2302216796875,0.17681258916854858,-0.5094320774078369,-0.1862359195947647
1737749713046288600,9.24028857421875,0.13127653300762177,-0.5001179575920105,-0.23370464146137238
1737749713056356600,9.250356689453126,0.07776083797216415,-0.4462376832962036,-0.23125478625297546
1737749713066423600,9.260423583984375,0.022115688771009445,-0.3312777876853943,-0.18193943798542023
1737749713076490800,9.27049072265625,-0.03717479854822159,-0.19111615419387817,-0.028604479506611824
1737749713086558500,9.280558349609375,-0.1072114109992981,-0.05216839537024498,0.0632234439253807
1737749713096626000,9.2906259765625,-0.17648981511592865,0.015033277682960033,0.1431789994239807
1737749713106692900,9.30069287109375,-0.23003320395946503,0.013464942574501038,0.2050711214542389
1737749713116759800,9.310759765625,-0.2365472912788391,-0.05301661416888237,0.24028822779655457
1737749713126827800,9.320827880859374,-0.20864322781562805,-0.1756538450717926,0.29678478837013245
1737749713136894700,9.330894775390625,-0.16956426203250885,-0.3230414390563965,0.41697272658348083
1737749713146961700,9.340961669921874,-0.1403837352991104,-0.4159735143184662,0.539537250995636
1737749713157029600,9.351029541015626,-0.1257520616054535,-0.4672766327857971,0.6340605616569519
1737749713167096600,9.3610966796875,-0.10178415477275848,-0.5625914335250854,0.6991083025932312
1737749713177163500,9.37116357421875,0.01793878711760044,-0.7839738726615906,0.6289936304092407
1737749713187231700,9.381231689453125,0.2791115343570709,-1.0410536527633667,0.5014087557792664
1737749713197298700,9.391298583984375,0.578009843826294,-1.2070969343185425,0.2834322452545166
1737749713207365600,9.40136572265625,0.7289609909057617,-1.165360450744629,0.032137431204319
1737749713217432800,9.411432861328125,0.5745538473129272,-0.8923912048339844,-0.03328285366296768
1737749713227500800,9.421500732421874,0.2374975085258484,-0.42282742261886597,0.13887985050678253
1737749713237564000,9.43156396484375,-0.022350313141942024,0.1647183746099472,0.3561064600944519
1737749713247630800,9.441630859375,-0.10800929367542267,0.7356116771697998,0.4849986433982849
1737749713257699000,9.451698974609375,-0.13622334599494934,1.199302077293396,0.5530427098274231
1737749713267766000,9.46176611328125,-0.1905164122581482,1.4743040800094604,0.566203236579895
1737749713277833000,9.4718330078125,-0.2306867390871048,1.48418390750885,0.4980587959289551
1737749713287900000,9.48189990234375,-0.16401183605194092,1.237398386001587,0.3663146197795868
1737749713297967900,9.4919677734375,0.013698501512408257,0.8678261637687683,0.249668151140213
1737749713308034800,9.502034912109375,0.22305358946323395,0.466461718082428,0.16564568877220154
1737749713318101800,9.512101806640626,0.38433995842933655,0.025906432420015335,0.05014119669795036
1737749713328170000,9.522169921875,0.476885050535202,-0.4558684527873993,-0.041369542479515076
1737749713338237000,9.53223681640625,0.5388898253440857,-0.8350282907485962,-0.029529396444559097
1737749713348304100,9.54230419921875,0.5551255345344543,-0.9472392797470093,-0.008224906399846077
1737749713358372000,9.5523720703125,0.5318963527679443,-0.8262659907341003,0.024889636784791946
1737749713368439000,9.56243896484375,0.5174548625946045,-0.602374255657196,0.11908005177974701
1737749713378506000,9.572506103515625,0.5275157690048218,-0.3571424186229706,0.2554043233394623
1737749713388573000,9.582572998046874,0.5226067304611206,-0.13320252299308777,0.38137638568878174
1737749713398641000,9.592640869140626,0.5117002725601196,0.012353339232504368,0.49636927247047424
1737749713408707800,9.602707763671875,0.535054624080658,0.0537593699991703,0.5721482038497925
1737749713418774800,9.61277490234375,0.599912703037262,-0.00635004136711359,0.6154013872146606
1737749713428843000,9.622843017578125,0.6676286458969116,-0.10094738751649857,0.6680736541748047
1737749713438910000,9.632909912109374,0.68604975938797,-0.15116794407367706,0.7709699273109436
1737749713448977000,9.642976806640625,0.6569075584411621,-0.171553373336792,0.8586156368255615
1737749713459044000,9.653044189453125,0.632491409778595,-0.22294732928276062,0.8726978898048401
1737749713469111800,9.66311181640625,0.6901267766952515,-0.31388628482818604,0.8193172216415405
1737749713479179000,9.673178955078125,0.8664243221282959,-0.3957936763763428,0.9184129238128662
1737749713489246000,9.683245849609374,1.0420206785202026,-0.2931213676929474,1.0705147981643677
1737749713499314000,9.69331396484375,1.065704345703125,0.04760640114545822,1.1788594722747803
1737749713509381000,9.703381103515625,0.9127012491226196,0.4550841450691223,1.292686104774475
1737749713519448000,9.713447998046876,0.6693665981292725,0.8830291032791138,1.4353737831115723
1737749713529515000,9.723514892578125,0.44782358407974243,1.261899709701538,1.3476585149765015
1737749713539583000,9.7335830078125,0.4060335159301758,1.4694353342056274,1.324387550354004
1737749713549650000,9.74364990234375,0.5190828442573547,1.5850564241409302,1.2927223443984985
1737749713559716900,9.753716796875,0.5895804762840271,1.6483848094940186,1.3069348335266113
1737749713569784800,9.763784912109376,0.5552334189414978,1.6280814409255981,1.3061604499816895
1737749713579851800,9.773851806640625,0.4398737847805023,1.566288948059082,1.3242267370224
1737749713589919000,9.7839189453125,0.36609116196632385,1.4574553966522217,1.372628927230835
1737749713599987000,9.793987060546876,0.40447744727134705,1.2801727056503296,1.3472594022750854
1737749713610054100,9.80405419921875,0.5224488377571106,1.0978503227233887,1.3287240266799927
1737749713620121000,9.81412109375,0.6266236901283264,0.9782155752182007,1.341027021408081
1737749713630188000,9.82418798828125,0.6687762141227722,0.9420492649078369,1.3895846605300903
1737749713640256000,9.834256103515624,0.628301203250885,0.9131425619125366,1.4361101388931274
1737749713650323000,9.844322998046875,0.547076940536499,0.8090733885765076,1.4435864686965942
1737749713660390000,9.854389892578125,0.4832414984703064,0.6225804686546326,1.3855189085006714
1737749713670457900,9.864457763671876,0.4636254608631134,0.3741517663002014,1.329836130142212
1737749713680525000,9.874525146484375,0.4497314691543579,0.16265442967414856,1.2838867902755737
1737749713690592000,9.884592041015624,0.39837801456451416,-0.0004588626616168767,1.227081298828125
1737749713700659000,9.894658935546875,0.3058675229549408,-0.13643960654735565,1.1916908025741577
1737749713710727000,9.904726806640625,0.2036396712064743,-0.16736716032028198,1.1871546506881714
1737749713720793900,9.9147939453125,0.130719393491745,-0.09658965468406677,1.11515212059021
1737749713730861000,9.924861083984375,0.12407241016626358,-0.002667954657226801,0.9915630221366882
1737749713740928800,9.9349287109375,0.18262840807437897,0.07284624129533768,0.8590657114982605
1737749713750996000,9.944995849609375,0.2737569808959961,0.10179640352725983,0.7884474992752075
1737749713761063000,9.95506298828125,0.3175683617591858,0.08481182903051376,0.6779880523681641
1737749713771129900,9.9651298828125,0.23888421058654785,0.05632505938410759,0.6043575406074524
1737749713781198000,9.975197998046875,0.06965364515781403,-0.007013700902462006,0.5188655257225037
1737749713791265000,9.98526513671875,-0.07416637241840363,-0.07411231100559235,0.44565311074256897
1737749713801332000,9.99533203125,-0.10068266838788986,-0.05288132280111313,0.36215075850486755
1737749713811400000,10.00539990234375,-0.06370733678340912,0.08861854672431946,0.23650655150413513
1737749713821467000,10.015466796875,-0.0315195769071579,0.34605780243873596,0.12963628768920898
1737749713831533800,10.025533935546875,-0.026150910183787346,0.6171263456344604,0.10666625946760178
1737749713841601800,10.035601806640624,-0.09734120219945908,0.7665845155715942,0.11264718323945999
1737749713851668700,10.045668701171875,-0.22976236045360565,0.8303451538085938,0.07590541988611221
1737749713861736000,10.05573583984375,-0.33961668610572815,0.8983995318412781,0.017968347296118736
1737749713871803100,10.06580322265625,-0.4100903272628784,0.9899954795837402,-0.05518495664000511
1737749713881871000,10.07587109375,-0.4540460705757141,0.9618677496910095,-0.14907124638557434
1737749713891938000,10.08593798828125,-0.4829661250114441,0.9265092015266418,-0.2610339820384979
1737749713902005000,10.0960048828125,-0.4820433259010315,0.9491165280342102,-0.25037574768066406
1737749713912073000,10.106072998046875,-0.46256470680236816,0.9053431749343872,-0.11148178577423096
1737749713922140000,10.116139892578126,-0.46115005016326904,0.652062714099884,0.0036373452749103308
1737749713932206800,10.126206787109375,-0.5169629454612732,0.2481568157672882,-0.06924671679735184
1737749713942273800,10.136273681640626,-0.6434335708618164,-0.16239716112613678,-0.2697505056858063
1737749713952342000,10.146342041015625,-0.7934776544570923,-0.45116931200027466,-0.4037913978099823
1737749713962409000,10.156408935546875,-0.9020001292228699,-0.5660937428474426,-0.3727853000164032
1737749713972476000,10.166475830078125,-0.9422394633293152,-0.6691122651100159,-0.4029647707939148
1737749713982544000,10.1765439453125,-0.8989609479904175,-0.5902257561683655,-0.5177017450332642
1737749713992610800,10.18661083984375,-0.801714301109314,-0.4922237992286682,-0.5915533304214478
1737749714002678000,10.196677978515625,-0.691799521446228,-0.44990643858909607,-0.6096084713935852
1737749714012745000,10.206744873046874,-0.6055213212966919,-0.12655873596668243,-0.6668126583099365
1737749714022813000,10.21681298828125,-0.5786932110786438,0.299690306186676,-0.6788411140441895
1737749714032879900,10.2268798828125,-0.6157745122909546,0.5729734897613525,-0.6495572328567505
1737749714042947000,10.236947021484376,-0.7207443118095398,0.562031090259552,-0.6699240207672119
1737749714053015000,10.24701513671875,-0.8549660444259644,0.43575865030288696,-0.7229784727096558
1737749714063082000,10.25708203125,-0.9257643222808838,0.2796838581562042,-0.7432757616043091
1737749714073149000,10.26714892578125,-0.9184142351150513,-0.10110451281070709,-0.7299032211303711
1737749714083217000,10.277216796875,-0.8898255228996277,-0.5618146061897278,-0.6535857915878296
1737749714093283800,10.287283935546874,-0.9171450138092041,-0.8540776371955872,-0.622765064239502
1737749714103350800,10.297350830078125,-1.0016423463821411,-0.8862824440002441,-0.6499298214912415
1737749714113418000,10.30741796875,-1.097739577293396,-0.7684956192970276,-0.6691468954086304
1737749714123486000,10.31748583984375,-1.180973768234253,-0.5995169878005981,-0.624492347240448
1737749714133553200,10.32755322265625,-1.246209740638733,-0.36092010140419006,-0.5801762938499451
1737749714143620000,10.3376201171875,-1.3234282732009888,-0.31654465198516846,-0.5589962005615234
1737749714153688000,10.34768798828125,-1.363447904586792,-0.5668333172798157,-0.5766366720199585
1737749714163755000,10.357755126953125,-1.3445005416870117,-0.9442700743675232,-0.586378276348114
1737749714173822000,10.367822021484375,-1.3129231929779053,-1.2795058488845825,-0.6085072755813599
1737749714183890000,10.377889892578125,-1.2976624965667725,-1.398038625717163,-0.6562497615814209
1737749714193956900,10.387956787109376,-1.2899113893508911,-1.3101935386657715,-0.654595673084259
1737749714204023800,10.39802392578125,-1.2911769151687622,-0.9887291789054871,-0.6580234169960022
1737749714214091000,10.408091064453124,-1.3204584121704102,-0.6780141592025757,-0.6295558214187622
1737749714224159000,10.418158935546876,-1.3332761526107788,-0.5151094198226929,-0.5747924447059631
1737749714234225400,10.428225341796875,-1.3178141117095947,-0.5425649881362915,-0.5242632031440735
1737749714244292600,10.438292724609376,-1.309066653251648,-0.7475866079330444,-0.5359976291656494
1737749714254360300,10.4483603515625,-1.3192194700241089,-1.0266395807266235,-0.5692781209945679
1737749714264427500,10.458427490234374,-1.3192919492721558,-1.1025638580322266,-0.5351744890213013
1737749714274494700,10.46849462890625,-1.305976152420044,-1.1302242279052734,-0.5544586777687073
1737749714284561700,10.478561767578125,-1.2683770656585693,-0.8605115413665771,-0.578533411026001
1737749714294629600,10.488629638671876,-1.2367911338806152,-0.4107297360897064,-0.562247097492218
1737749714304696600,10.498696533203125,-1.296189785003662,-0.21119053661823273,-0.5261175632476807
1737749714314763500,10.508763427734374,-1.401556372642517,-0.07469075173139572,-0.5075721144676208
1737749714324831500,10.51883154296875,-1.4532582759857178,-0.09436671435832977,-0.5164948105812073
1737749714334898400,10.5288984375,-1.4531972408294678,-0.5181382298469543,-0.5092238187789917
1737749714344965400,10.53896533203125,-1.4957777261734009,-1.0255430936813354,-0.5049664974212646
1737749714355033600,10.54903369140625,-1.5155242681503296,-1.3371779918670654,-0.5190812349319458
1737749714365100500,10.5591005859375,-1.4557133913040161,-1.436951756477356,-0.5119125247001648
1737749714375167500,10.56916748046875,-1.3759528398513794,-1.2522058486938477,-0.5213028788566589
1737749714385234700,10.579234619140625,-1.3119256496429443,-1.0207768678665161,-0.602894127368927
1737749714395302700,10.589302734375,-1.2253906726837158,-0.8338873982429504,-0.6300336122512817
1737749714405369600,10.59936962890625,-1.222693681716919,-0.8376400470733643,-0.6866859793663025
1737749714415436500,10.6094365234375,-1.279919981956482,-0.9699634909629822,-0.7086154818534851
1737749714425504500,10.61950439453125,-1.227982521057129,-1.2113840579986572,-0.6919230818748474
1737749714435571500,10.629571533203125,-1.1519702672958374,-1.3941688537597656,-0.6769084334373474
1737749714445638400,10.639638427734376,-1.106994867324829,-1.4424545764923096,-0.668870210647583
1737749714455706600,10.64970654296875,-1.0986967086791992,-1.4460046291351318,-0.6067277193069458
1737749714465773600,10.659773681640624,-1.127091884613037,-1.361122488975525,-0.5537598729133606
1737749714475840500,10.669840576171875,-1.0980236530303955,-1.3961528539657593,-0.5069364309310913
1737749714485908500,10.679908447265625,-1.0332545042037964,-1.4881696701049805,-0.46643003821372986
1737749714495975400,10.689975341796876,-0.9468954205513,-1.5481101274490356,-0.4924674928188324
1737749714506042400,10.70004248046875,-0.9218465685844421,-1.57960844039917,-0.5319368839263916
1737749714516109600,10.710109619140624,-0.8947552442550659,-1.4996265172958374,-0.5566832423210144
1737749714526177500,10.720177490234375,-0.8484998941421509,-1.3180441856384277,-0.4980449378490448
1737749714536244700,10.73024462890625,-0.8418174982070923,-1.1163889169692993,-0.434815913438797
1737749714546311700,10.740311767578126,-0.8959387540817261,-1.1115179061889648,-0.3425773084163666
1737749714556379600,10.750379638671875,-0.903630793094635,-1.3266667127609253,-0.2542884647846222
1737749714566446600,10.760446533203124,-0.8715487718582153,-1.570109486579895,-0.24075321853160858
1737749714576513500,10.770513427734375,-0.8492146730422974,-1.7917464971542358,-0.271039217710495
1737749714586581500,10.78058154296875,-0.7879489064216614,-1.8504396677017212,-0.31600138545036316
1737749714596648400,10.7906484375,-0.6929143071174622,-1.7861003875732422,-0.3469739258289337
1737749714606715400,10.80071533203125,-0.6281675100326538,-1.7384287118911743,-0.40396636724472046
1737749714616783600,10.81078369140625,-0.6064936518669128,-1.759671688079834,-0.41507628560066223
1737749714626850600,10.8208505859375,-0.5732843279838562,-1.8008511066436768,-0.4143471121788025
1737749714636917500,10.83091748046875,-0.5478609800338745,-1.7829285860061646,-0.40271469950675964
1737749714646985500,10.8409853515625,-0.57076495885849,-1.746910572052002,-0.36424267292022705
1737749714657052400,10.851052490234375,-0.5905343890190125,-1.712152361869812,-0.2979789674282074
1737749714667119600,10.86111962890625,-0.5940758585929871,-1.8436135053634644,-0.23796676099300385
1737749714677187300,10.871187255859375,-0.5506719350814819,-1.9497952461242676,-0.18393442034721375
1737749714687254500,10.881254638671875,-0.4481053352355957,-2.16951322555542,-0.18773101270198822
1737749714697321500,10.891321533203126,-0.36584988236427307,-2.2546451091766357,-0.17896175384521484
1737749714707388700,10.901388671875,-0.347624808549881,-2.1841375827789307,-0.20883417129516602
1737749714717456600,10.91145654296875,-0.41307759284973145,-2.0074455738067627,-0.27438175678253174
1737749714727523600,10.921523681640625,-0.4805296063423157,-1.7386372089385986,-0.33271324634552
1737749714737590500,10.931590576171875,-0.46563559770584106,-1.5911351442337036,-0.42114004492759705
1737749714747658500,10.941658447265626,-0.3874598443508148,-1.6037894487380981,-0.5078632235527039
1737749714757725400,10.951725341796875,-0.2569846510887146,-1.7309819459915161,-0.5454888939857483
1737749714767792400,10.96179248046875,-0.18884581327438354,-1.883034348487854,-0.5789949297904968
1737749714777860600,10.971860595703125,-0.1950560361146927,-1.9134018421173096,-0.6236364245414734
1737749714787927600,10.981927490234375,-0.20266203582286835,-1.7295424938201904,-0.6387757062911987
1737749714797994500,10.991994384765626,-0.20447750389575958,-1.6749250888824463,-0.719601035118103
1737749714808062500,11.0020625,-0.07717175036668777,-1.694965124130249,-0.8021963238716125
1737749714818129700,11.012129638671874,0.039440348744392395,-1.8483048677444458,-0.9028195738792419
1737749714828196600,11.022196533203125,0.06731672585010529,-1.883614420890808,-0.9730892181396484
1737749714838263600,11.032263671875,0.08424936980009079,-1.886379361152649,-1.1031702756881714
1737749714848331500,11.04233154296875,0.12571877241134644,-1.8279516696929932,-1.2390754222869873
1737749714858398500,11.0523984375,0.1871192902326584,-1.8545018434524536,-1.3080158233642578
1737749714868465400,11.06246533203125,0.23207877576351166,-1.7954539060592651,-1.3737186193466187
1737749714878533600,11.07253369140625,0.23407721519470215,-1.7298301458358765,-1.455061435699463
1737749714888600600,11.0826005859375,0.2328614741563797,-1.7374478578567505,-1.531926155090332
1737749714898667500,11.09266748046875,0.2419428527355194,-1.7679351568222046,-1.6336698532104492
1737749714908735500,11.102735595703125,0.23421889543533325,-1.8201595544815063,-1.7466429471969604
1737749714918802400,11.112802490234374,0.24315911531448364,-1.8576456308364868,-1.74994695186615
1737749714928869400,11.122869384765625,0.23607857525348663,-1.8102807998657227,-1.7817742824554443
1737749714938937300,11.132937255859375,0.2176138162612915,-1.8244764804840088,-1.7795101404190063
1737749714949004300,11.14300439453125,0.18986128270626068,-1.840438961982727,-1.7161582708358765
1737749714959071700,11.15307177734375,0.12324736267328262,-1.8438770771026611,-1.6795132160186768
1737749714969138700,11.163138671875,0.10490058362483978,-1.873081922531128,-1.6013411283493042
1737749714979206700,11.17320654296875,0.16170234978199005,-1.9456980228424072,-1.3733527660369873
1737749714989273600,11.183273681640625,0.31441837549209595,-1.9783574342727661,-1.0991712808609009
1737749714999340500,11.193340576171876,0.47358301281929016,-1.9704259634017944,-0.8732779622077942
1737749715009408500,11.203408447265625,0.6184967756271362,-1.9191924333572388,-0.6707873940467834
1737749715019475500,11.213475341796874,0.6971146464347839,-1.7549952268600464,-0.4497724771499634
1737749715029542400,11.22354248046875,0.7481591701507568,-1.4705933332443237,-0.2055630087852478
1737749715039609300,11.233609375,0.8750777244567871,-1.1420379877090454,0.11452791094779968
1737749715049677600,11.243677490234376,1.0819555521011353,-0.753307044506073,0.4924328625202179
1737749715059744500,11.25374462890625,1.2621676921844482,-0.3650836944580078,0.9004661440849304
1737749715069811500,11.2638115234375,1.3796486854553223,-0.011214837431907654,1.3312199115753174
1737749715079879400,11.27387939453125,1.4612770080566406,0.3029625415802002,1.7111872434616089
1737749715089946600,11.283946533203125,1.5813413858413696,0.4173985719680786,1.9896119832992554
1737749715100013600,11.294013671875,1.7667030096054077,0.4666116535663605,2.260354995727539
1737749715110080500,11.30408056640625,1.9344863891601562,0.5071782469749451,2.5139811038970947
1737749715120148500,11.3141484375,2.026111125946045,0.5879356861114502,2.7137932777404785
1737749715130215700,11.324215576171875,2.0582242012023926,0.6630259156227112,2.9015705585479736
1737749715140282600,11.33428271484375,2.1365907192230225,0.6758983135223389,3.133932113647461
1737749715150350600,11.3443505859375,2.2890522480010986,0.6695914268493652,3.376765012741089
1737749715160417500,11.35441748046875,2.3892672061920166,0.7588635087013245,3.5469937324523926
1737749715170484500,11.364484375,2.429595947265625,0.9568913578987122,3.70013689994812
1737749715180551400,11.374551513671875,2.4596850872039795,1.2526795864105225,3.8163394927978516
1737749715190619400,11.384619384765625,2.4720776081085205,1.554879903793335,3.867675542831421
1737749715200686300,11.394686279296875,2.474595785140991,1.8442068099975586,3.9157979488372803
1737749715210753500,11.40475341796875,2.508920907974243,2.087543249130249,4.022145748138428
1737749715220821500,11.414821533203124,2.5356106758117676,2.293163776397705,4.168915271759033
1737749715230888700,11.424888671875,2.4692814350128174,2.538757801055908,4.2914533615112305
1737749715240959200,11.434959228515625,2.320266008377075,2.8033034801483154,4.384249210357666
1737749715251027200,11.445027099609375,2.1664857864379883,3.0423927307128906,4.454451560974121
1737749715261094100,11.45509423828125,2.032769203186035,3.2157537937164307,4.517458438873291
1737749715271161000,11.4651611328125,1.916420817375183,3.3583498001098633,4.517510414123535
1737749715281228000,11.47522802734375,1.817947506904602,3.455517530441284,4.433377265930176
1737749715291296300,11.485296142578125,1.7625924348831177,3.444018840789795,4.34329891204834
1737749715301363200,11.49536328125,1.7634704113006592,3.3838398456573486,4.263646602630615
1737749715311430100,11.50543017578125,1.7710436582565308,3.3792130947113037,4.187706470489502
1737749715321498000,11.515498046875,1.712593674659729,3.3963351249694824,4.138777732849121
1737749715331565000,11.52556494140625,1.5993536710739136,3.4230165481567383,4.135003089904785
1737749715341632000,11.535632080078125,1.4729562997817993,3.4389235973358154,4.066102981567383
1737749715351700000,11.545699951171875,1.357405424118042,3.4661154747009277,3.967860221862793
1737749715361767200,11.55576708984375,1.3396235704421997,3.4115161895751953,3.86976957321167
1737749715371834000,11.565834228515625,1.4242188930511475,3.39300274848938,3.7392592430114746
1737749715381901300,11.5759013671875,1.4774165153503418,3.369154930114746,3.644497871398926
1737749715391969300,11.58596923828125,1.3883354663848877,3.296914577484131,3.520024299621582
1737749715402036200,11.5960361328125,1.1670867204666138,3.1760711669921875,3.293325901031494
1737749715412103200,11.606103271484375,0.9120093584060669,3.033357620239258,2.984070301055908
1737749715422171100,11.616171142578125,0.7421050071716309,2.9040839672088623,2.6736464500427246
1737749715432238000,11.626238037109376,0.6963945031166077,2.730719566345215,2.435945749282837
1737749715442305000,11.636304931640625,0.7500739693641663,2.581979990005493,2.2342474460601807
1737749715452372000,11.6463720703125,0.8086073398590088,2.469167947769165,2.15730357170105
1737749715462440200,11.656440185546876,0.7747990489006042,2.4283971786499023,2.2577342987060547
1737749715472507100,11.666507080078125,0.6908018589019775,2.4236509799957275,2.4272444248199463
1737749715482574300,11.67657421875,0.6279749870300293,2.247682809829712,2.372159957885742
1737749715492642000,11.68664208984375,0.6194531321525574,1.8644180297851562,2.1407032012939453
1737749715502709200,11.696709228515624,0.6339878439903259,1.1815465688705444,1.8495144844055176
1737749715512776200,11.706776123046875,0.5090608596801758,0.26892760396003723,1.5460031032562256
1737749715522844200,11.71684423828125,0.19241578876972198,-0.4545571208000183,1.3498878479003906
1737749715532911000,11.7269111328125,-0.16352368891239166,-0.7288675308227539,1.3134276866912842
1737749715542978000,11.73697802734375,-0.4081645905971527,-0.5487182140350342,1.2586592435836792
1737749715553045200,11.747045166015624,-0.5554680228233337,-0.2839781939983368,1.1849615573883057
1737749715563113200,11.75711328125,-0.5869577527046204,-0.2546325623989105,1.0649064779281616
1737749715573180200,11.76718017578125,-0.5005486011505127,-0.3053641617298126,0.8963872790336609
1737749715583247000,11.7772470703125,-0.43665003776550293,-0.41921722888946533,0.5827049612998962
1737749715593315000,11.787315185546875,-0.49481400847435,-0.5533883571624756,0.31244418025016785
1737749715603382000,11.797382080078124,-0.6751965284347534,-0.6417800188064575,0.1218247041106224
1737749715613449200,11.80744921875,-0.8808525204658508,-0.5312675833702087,0.01341540738940239
1737749715623516200,11.81751611328125,-1.0016844272613525,-0.1365748941898346,-0.12431369721889496
1737749715633584400,11.82758447265625,-1.0238064527511597,0.4253414571285248,-0.17001141607761383
1737749715643651300,11.8376513671875,-0.989491879940033,1.009789228439331,-0.11620090901851654
1737749715653718300,11.84771826171875,-0.974170446395874,1.5485378503799438,-0.09530681371688843
1737749715663786200,11.8577861328125,-0.9990689158439636,1.8109148740768433,-0.11926594376564026
1737749715673853200,11.867853271484375,-0.9956235885620117,1.704994559288025,-0.1876537799835205
1737749715683920100,11.877920166015626,-0.9541789293289185,1.301734447479248,-0.20973272621631622
1737749715693988000,11.887988037109375,-0.9877176880836487,0.7207158207893372,-0.35898691415786743
1737749715704055000,11.898054931640624,-1.0437670946121216,0.21817973256111145,-0.5161153078079224
1737749715714122000,11.9081220703125,-0.9877230525016785,0.11156221479177475,-0.6068976521492004
1737749715724189000,11.91818896484375,-0.8401282429695129,0.11622700840234756,-0.652212381362915
1737749715734257200,11.928257080078126,-0.649363100528717,0.23252564668655396,-0.821295976638794
1737749715744324000,11.938323974609375,-0.5238613486289978,0.6618826389312744,-0.9051471948623657
1737749715754391300,11.948391357421874,-0.5345430374145508,1.047263264656067,-0.9210276007652283
1737749715764459000,11.958458984375,-0.607384204864502,0.9632392525672913,-0.7963730692863464
1737749715774526200,11.968526123046875,-0.6638666391372681,0.40551048517227173,-0.7210732102394104
1737749715784593200,11.97859326171875,-0.7465980052947998,-0.10173355042934418,-0.7021445631980896
1737749715794660000,11.98866015625,-0.9027780294418335,-0.4702162444591522,-0.8125746250152588
1737749715804728300,11.998728271484374,-1.0075715780258179,-0.740296483039856,-0.7606568336486816
1737749715814795300,12.008795166015625,-1.0701515674591064,-0.8714281320571899,-0.7531933784484863
1737749715824862200,12.0188623046875,-1.1705671548843384,-0.7589481472969055,-0.8971020579338074
1737749715834930200,12.02893017578125,-1.288512945175171,-0.5223614573478699,-0.9991759657859802
1737749715844997000,12.0389970703125,-1.360735535621643,-0.27882176637649536,-1.0239238739013672
1737749715855064000,12.04906396484375,-1.4295332431793213,-0.04312856122851372,-0.910571277141571
1737749715865132000,12.059132080078125,-1.5396392345428467,0.009845173917710781,-0.860149085521698
1737749715875199000,12.069198974609375,-1.602605938911438,-0.03244742006063461,-0.8807939291000366
1737749715885266200,12.07926611328125,-1.543975830078125,0.0369524247944355,-0.8302875757217407
1737749715895334100,12.089334228515625,-1.4372507333755493,-0.005529521498829126,-0.7744688391685486
1737749715905401300,12.0994013671875,-1.4012442827224731,-0.1926426887512207,-0.7476377487182617
1737749715915468300,12.10946826171875,-1.5096349716186523,-0.3680185079574585,-0.680013120174408
1737749715925535200,12.11953515625,-1.719089150428772,-0.534084677696228,-0.7255438566207886
1737749715935603200,12.129603271484376,-1.846351981163025,-0.6305316090583801,-0.7852059006690979
1737749715945670100,12.139670166015625,-1.7578703165054321,-0.7205736041069031,-0.6766082644462585
1737749715955737000,12.149737060546874,-1.5632766485214233,-0.8920135498046875,-0.6075202822685242
1737749715965805000,12.15980517578125,-1.4210715293884277,-0.9084170460700989,-0.7158406376838684
1737749715975872000,12.1698720703125,-1.28545081615448,-0.630985677242279,-0.7327876687049866
1737749715985939200,12.179939208984376,-1.1893028020858765,-0.19739162921905518,-0.6702598333358765
1737749715996007200,12.190007080078125,-1.2144179344177246,0.2537076473236084,-0.7241060137748718
1737749716006074000,12.20007421875,-1.3280587196350098,0.5873780250549316,-0.7819086313247681
1737749716016141000,12.21014111328125,-1.420517086982727,0.6433592438697815,-0.8056360483169556
1737749716026209000,12.220208984375,-1.522820234298706,0.2945035398006439,-0.823695719242096
1737749716036276200,12.230276123046876,-1.5985698699951172,-0.3886697292327881,-0.7717928886413574
1737749716046343200,12.24034326171875,-1.627956509590149,-1.0881279706954956,-0.7887505292892456
1737749716056410000,12.25041015625,-1.5835075378417969,-1.4799915552139282,-0.8389894962310791
1737749716066478300,12.260478271484375,-1.4967844486236572,-1.6442053318023682,-0.8164482116699219
1737749716076545300,12.270545166015625,-1.4935885667800903,-1.4736236333847046,-0.8129245638847351
1737749716086612200,12.2806123046875,-1.5235984325408936,-1.1048102378845215,-0.7534657716751099
1737749716096680200,12.29068017578125,-1.4893238544464111,-0.7497469782829285,-0.7396796941757202
1737749716106747100,12.3007470703125,-1.3742947578430176,-0.5003834366798401,-0.7133378386497498
1737749716116814000,12.31081396484375,-1.2597204446792603,-0.5152521729469299,-0.6733983755111694
1737749716126882000,12.320882080078125,-1.2002842426300049,-0.8649052381515503,-0.6257730722427368
1737749716136949000,12.330948974609376,-1.1434756517410278,-1.3668477535247803,-0.6582940220832825
1737749716147016000,12.341015869140625,-1.0510470867156982,-1.664767861366272,-0.6656699180603027
1737749716157084200,12.351084228515624,-1.0026109218597412,-1.7600029706954956,-0.6642051339149475
1737749716167151000,12.361151123046875,-0.9786176681518555,-1.602674126625061,-0.6944946050643921
1737749716177218300,12.37121826171875,-0.9211695790290833,-1.3687238693237305,-0.6727022528648376
1737749716187285200,12.38128515625,-0.906172513961792,-1.1624176502227783,-0.6741597652435303
1737749716197353200,12.391353271484375,-0.9756719470024109,-1.1521724462509155,-0.6993985772132874
1737749716207420200,12.401420166015624,-1.0258100032806396,-1.4633708000183105,-0.638386607170105
1737749716217487000,12.411487060546875,-1.023165225982666,-1.8975297212600708,-0.6528334617614746
1737749716227555000,12.42155517578125,-1.068243384361267,-2.166135787963867,-0.6565011739730835
1737749716237619500,12.431619384765625,-1.1225987672805786,-2.195695161819458,-0.6583278179168701
1737749716247686400,12.441686279296874,-1.1195111274719238,-2.085268497467041,-0.6260692477226257
1737749716257754400,12.45175439453125,-1.1111469268798828,-1.9041497707366943,-0.566354513168335
1737749716267821300,12.4618212890625,-1.1246888637542725,-1.7773792743682861,-0.524743378162384
1737749716277888300,12.47188818359375,-1.1633864641189575,-1.8004401922225952,-0.47805631160736084
1737749716287956500,12.48195654296875,-1.1121057271957397,-2.0265164375305176,-0.4632384777069092
1737749716298023400,12.4920234375,-1.0241435766220093,-2.2853126525878906,-0.4477524757385254
1737749716308090400,12.50209033203125,-0.9658259749412537,-2.3123741149902344,-0.41874372959136963
1737749716318158300,12.512158447265625,-0.9967671036720276,-2.1491193771362305,-0.3463214635848999
1737749716328225300,12.522225341796876,-1.0824953317642212,-2.0658226013183594,-0.2928824722766876
1737749716338292500,12.53229248046875,-1.1507664918899536,-2.0855066776275635,-0.3052707016468048
1737749716348360200,12.542360107421874,-1.225082278251648,-2.3539459705352783,-0.3191673457622528
1737749716358427400,12.552427490234376,-1.2558895349502563,-2.63975191116333,-0.37226995825767517
1737749716368494600,12.56249462890625,-1.2110189199447632,-2.8987269401550293,-0.3742194175720215
1737749716378562600,12.5725625,-1.1603754758834839,-2.941788911819458,-0.39010435342788696
1737749716388629500,12.58262939453125,-1.0947905778884888,-2.576857328414917,-0.3411165773868561
1737749716398696400,12.592696533203124,-1.0472880601882935,-2.24790096282959,-0.2964412569999695
1737749716408764400,12.602764404296876,-1.0143200159072876,-2.128422975540161,-0.27883055806159973
1737749716418831400,12.612831298828125,-0.976036548614502,-2.320934295654297,-0.30474579334259033
