time,seconds_elapsed,z,y,x
1737751386630991600,0.13499169921875,-0.1646575927734375,-0.4576568603515625,-0.8726959228515625
1737751386641059600,0.1450595703125,-0.1643218994140625,-0.46160888671875,-0.873138427734375
1737751386651127600,0.15512744140625,-0.1664886474609375,-0.46337890625,-0.8787994384765625
1737751386661195800,0.16519580078125,-0.1668853759765625,-0.4557952880859375,-0.8775634765625
1737751386671263700,0.175263671875,-0.1663360595703125,-0.451324462890625,-0.8727874755859375
1737751386681331700,0.185331787109375,-0.1683349609375,-0.457550048828125,-0.8694305419921875
1737751386691399700,0.195399658203125,-0.1685028076171875,-0.46630859375,-0.871490478515625
1737751386701467600,0.205467529296875,-0.1684112548828125,-0.4755706787109375,-0.8791656494140625
1737751386711535600,0.21553564453125,-0.165618896484375,-0.4791259765625,-0.8839111328125
1737751386721603600,0.225603515625,-0.167633056640625,-0.4681549072265625,-0.8787078857421875
1737751386731671600,0.235671630859375,-0.170806884765625,-0.4599456787109375,-0.8708953857421875
1737751386741739800,0.24573974609375,-0.169708251953125,-0.461029052734375,-0.8676300048828125
1737751386751807700,0.255807861328125,-0.1708221435546875,-0.46435546875,-0.8662872314453125
1737751386761875700,0.265875732421875,-0.1681976318359375,-0.46820068359375,-0.864013671875
1737751386771943700,0.275943603515625,-0.1638641357421875,-0.4708251953125,-0.863067626953125
1737751386782011600,0.28601171875,-0.1633758544921875,-0.474334716796875,-0.8715667724609375
1737751386792079600,0.29607958984375,-0.1627044677734375,-0.4746246337890625,-0.877227783203125
1737751386802147600,0.306147705078125,-0.1630706787109375,-0.4714202880859375,-0.877532958984375
1737751386812215600,0.316215576171875,-0.1643218994140625,-0.4708709716796875,-0.875579833984375
1737751386822283800,0.32628369140625,-0.16705322265625,-0.4717559814453125,-0.8772125244140625
1737751386832350700,0.336350830078125,-0.1691741943359375,-0.4683685302734375,-0.8782196044921875
1737751386842418700,0.346418701171875,-0.1699066162109375,-0.4692840576171875,-0.8803253173828125
1737751386852486700,0.356486572265625,-0.170867919921875,-0.4679412841796875,-0.87371826171875
1737751386862554600,0.3665546875,-0.1729583740234375,-0.4654083251953125,-0.860809326171875
1737751386872622800,0.376622802734375,-0.17657470703125,-0.468780517578125,-0.8529815673828125
1737751386882690600,0.386690673828125,-0.1789703369140625,-0.472747802734375,-0.850128173828125
1737751386892758500,0.396758544921875,-0.177886962890625,-0.4741058349609375,-0.8472442626953125
1737751386902826500,0.406826416015625,-0.1741485595703125,-0.4721832275390625,-0.8502655029296875
1737751386912894700,0.416894775390625,-0.17352294921875,-0.4719390869140625,-0.846893310546875
1737751386922962700,0.426962646484375,-0.1693878173828125,-0.47235107421875,-0.8459014892578125
1737751386933030700,0.43703076171875,-0.1660308837890625,-0.4764404296875,-0.852447509765625
1737751386943098600,0.4470986328125,-0.1624603271484375,-0.476806640625,-0.85748291015625
1737751386953166800,0.457166748046875,-0.1592864990234375,-0.4734954833984375,-0.858184814453125
1737751386963234600,0.467234619140625,-0.1594390869140625,-0.471649169921875,-0.8642578125
1737751386973302500,0.477302490234375,-0.1613311767578125,-0.4709320068359375,-0.87353515625
1737751386983370800,0.487370849609375,-0.1629791259765625,-0.472412109375,-0.8740234375
1737751386993438700,0.497438720703125,-0.1631317138671875,-0.4737701416015625,-0.8738861083984375
1737751387003506700,0.507506591796875,-0.1625213623046875,-0.47259521484375,-0.873687744140625
1737751387013574700,0.51757470703125,-0.164031982421875,-0.47430419921875,-0.8766326904296875
1737751387023643000,0.527642822265625,-0.1654815673828125,-0.4747314453125,-0.8790130615234375
1737751387033710600,0.537710693359375,-0.165740966796875,-0.4726409912109375,-0.880340576171875
1737751387043778600,0.547778564453125,-0.162445068359375,-0.470550537109375,-0.87872314453125
1737751387053846500,0.557846435546875,-0.1616058349609375,-0.470062255859375,-0.8761749267578125
1737751387063914800,0.567914794921875,-0.16412353515625,-0.47119140625,-0.8769073486328125
1737751387073982700,0.577982666015625,-0.1629180908203125,-0.4700927734375,-0.877410888671875
1737751387084050700,0.58805078125,-0.1627655029296875,-0.4685821533203125,-0.8782806396484375
1737751387094118700,0.59811865234375,-0.162261962890625,-0.4705810546875,-0.8734588623046875
1737751387104187000,0.608186767578125,-0.161865234375,-0.4705810546875,-0.8722686767578125
1737751387114254600,0.618254638671875,-0.15936279296875,-0.4707489013671875,-0.87347412109375
1737751387124322600,0.628322509765625,-0.15716552734375,-0.468414306640625,-0.8714599609375
1737751387134390500,0.638390625,-0.155517578125,-0.468658447265625,-0.8696136474609375
1737751387144458800,0.648458740234375,-0.15570068359375,-0.469940185546875,-0.870941162109375
1737751387154526700,0.658526611328125,-0.1552734375,-0.4696197509765625,-0.8676910400390625
1737751387164594700,0.6685947265625,-0.1561279296875,-0.471221923828125,-0.864532470703125
1737751387174661600,0.67866162109375,-0.1587677001953125,-0.4737701416015625,-0.8647918701171875
1737751387184729600,0.6887294921875,-0.1601715087890625,-0.475555419921875,-0.8638763427734375
1737751387194797800,0.6987978515625,-0.1635284423828125,-0.47381591796875,-0.8665924072265625
1737751387204865800,0.70886572265625,-0.165496826171875,-0.4699249267578125,-0.866729736328125
1737751387214933800,0.718933837890625,-0.16790771484375,-0.4669952392578125,-0.8695220947265625
1737751387225001500,0.72900146484375,-0.1672821044921875,-0.4647979736328125,-0.8702392578125
1737751387235069700,0.739069580078125,-0.166473388671875,-0.466827392578125,-0.8693389892578125
1737751387245137700,0.7491376953125,-0.16571044921875,-0.4676055908203125,-0.8719635009765625
1737751387255205600,0.75920556640625,-0.1650238037109375,-0.4666595458984375,-0.8732452392578125
1737751387265273600,0.769273681640625,-0.1639251708984375,-0.4654388427734375,-0.8722381591796875
1737751387275341800,0.779341796875,-0.1627349853515625,-0.4670562744140625,-0.86968994140625
1737751387285409800,0.789409912109375,-0.163055419921875,-0.47052001953125,-0.8690338134765625
1737751387295477500,0.7994775390625,-0.16461181640625,-0.471588134765625,-0.870269775390625
1737751387305545500,0.80954541015625,-0.168182373046875,-0.471038818359375,-0.872344970703125
1737751387315613700,0.81961376953125,-0.166046142578125,-0.468170166015625,-0.87640380859375
1737751387325681700,0.829681640625,-0.164398193359375,-0.466339111328125,-0.874298095703125
1737751387335748900,0.839748779296875,-0.1661529541015625,-0.46441650390625,-0.8726959228515625
1737751387345817000,0.849817138671875,-0.1645050048828125,-0.4643707275390625,-0.874114990234375
1737751387355885000,0.859885009765625,-0.1628875732421875,-0.466033935546875,-0.8755950927734375
1737751387365953000,0.869953125,-0.1596527099609375,-0.4677276611328125,-0.8765716552734375
1737751387376021000,0.88002099609375,-0.160980224609375,-0.466094970703125,-0.876495361328125
1737751387386089000,0.8900888671875,-0.1620025634765625,-0.4628753662109375,-0.87225341796875
1737751387396157000,0.900156982421875,-0.1622314453125,-0.4645843505859375,-0.86822509765625
1737751387406225000,0.910224853515625,-0.1642913818359375,-0.464935302734375,-0.8700103759765625
1737751387416292900,0.92029296875,-0.163848876953125,-0.463134765625,-0.871917724609375
1737751387426361000,0.930361083984375,-0.1617889404296875,-0.463623046875,-0.8729095458984375
1737751387436429000,0.940428955078125,-0.1612091064453125,-0.4652252197265625,-0.872528076171875
1737751387446497000,0.9504970703125,-0.1621856689453125,-0.4664459228515625,-0.8733978271484375
1737751387456565000,0.96056494140625,-0.163665771484375,-0.46856689453125,-0.876434326171875
1737751387466633000,0.970633056640625,-0.16497802734375,-0.4659271240234375,-0.87890625
1737751387476701000,0.980700927734375,-0.16583251953125,-0.4644622802734375,-0.8794097900390625
1737751387486769000,0.990768798828125,-0.1667022705078125,-0.4653472900390625,-0.87841796875
1737751387496836900,1.0008369140625,-0.1663055419921875,-0.4676361083984375,-0.87744140625
1737751387506905000,1.010905029296875,-0.168121337890625,-0.4682464599609375,-0.8791961669921875
1737751387516973000,1.02097314453125,-0.168212890625,-0.4659576416015625,-0.8791046142578125
1737751387527041000,1.031041015625,-0.1700592041015625,-0.462890625,-0.877716064453125
1737751387537109000,1.04110888671875,-0.1722564697265625,-0.460235595703125,-0.87890625
1737751387547177000,1.051177001953125,-0.17230224609375,-0.4564056396484375,-0.882171630859375
1737751387557245000,1.061244873046875,-0.1716766357421875,-0.4532012939453125,-0.88507080078125
1737751387567313000,1.07131298828125,-0.170745849609375,-0.4506378173828125,-0.88720703125
1737751387577379800,1.0813798828125,-0.1724700927734375,-0.4469146728515625,-0.891143798828125
1737751387587447800,1.09144775390625,-0.172698974609375,-0.442596435546875,-0.892333984375
1737751387597516000,1.10151611328125,-0.171966552734375,-0.4398956298828125,-0.8939208984375
1737751387607584000,1.111583984375,-0.167510986328125,-0.4416351318359375,-0.901580810546875
1737751387617652000,1.12165185546875,-0.1616058349609375,-0.443389892578125,-0.9124603271484375
1737751387627720000,1.131719970703125,-0.16033935546875,-0.4400177001953125,-0.9148712158203125
1737751387637788200,1.1417880859375,-0.1685638427734375,-0.435882568359375,-0.90533447265625
1737751387647855900,1.15185595703125,-0.1776275634765625,-0.4408721923828125,-0.9028167724609375
1737751387657923800,1.161923828125,-0.168243408203125,-0.444488525390625,-0.912445068359375
1737751387667992000,1.171991943359375,-0.12890625,-0.4424591064453125,-0.9323272705078125
1737751387678060000,1.18206005859375,-0.0781402587890625,-0.4301605224609375,-0.9547882080078125
1737751387688128000,1.1921279296875,-0.049713134765625,-0.4022216796875,-0.974945068359375
1737751387698196000,1.202196044921875,-0.0412139892578125,-0.372711181640625,-0.986419677734375
1737751387708264200,1.21226416015625,-0.044342041015625,-0.3486328125,-0.9888916015625
1737751387718332200,1.222332275390625,-0.0471954345703125,-0.3273773193359375,-0.9817657470703125
1737751387728400000,1.23239990234375,-0.0458526611328125,-0.3153228759765625,-0.9712677001953125
1737751387738467800,1.2424677734375,-0.0517578125,-0.3152923583984375,-0.960205078125
1737751387748536000,1.2525361328125,-0.0614776611328125,-0.33526611328125,-0.95001220703125
1737751387758604000,1.26260400390625,-0.0727996826171875,-0.3619842529296875,-0.9399566650390625
1737751387768672000,1.272672119140625,-0.0968170166015625,-0.3782958984375,-0.94189453125
1737751387778740000,1.282739990234375,-0.10601806640625,-0.3796234130859375,-0.93011474609375
1737751387788808200,1.29280810546875,-0.1138763427734375,-0.3763427734375,-0.888671875
1737751387798876200,1.302876220703125,-0.1266326904296875,-0.37982177734375,-0.865966796875
1737751387808943900,1.31294384765625,-0.1351470947265625,-0.3765106201171875,-0.8516693115234375
1737751387819011800,1.32301171875,-0.146270751953125,-0.37310791015625,-0.85858154296875
1737751387829080000,1.333080078125,-0.14825439453125,-0.37310791015625,-0.8795928955078125
1737751387839148000,1.34314794921875,-0.1387481689453125,-0.361602783203125,-0.901123046875
1737751387849216000,1.353216064453125,-0.12432861328125,-0.3492889404296875,-0.895477294921875
1737751387859284000,1.363283935546875,-0.1213836669921875,-0.344512939453125,-0.91339111328125
1737751387869352200,1.373352294921875,-0.1317291259765625,-0.3441925048828125,-0.941162109375
1737751387879420200,1.383420166015625,-0.1337890625,-0.343353271484375,-0.9556121826171875
1737751387889488000,1.39348779296875,-0.136322021484375,-0.3366546630859375,-0.94512939453125
1737751387899555800,1.403555908203125,-0.1444244384765625,-0.329437255859375,-0.93634033203125
1737751387909624000,1.4136240234375,-0.1509246826171875,-0.325775146484375,-0.934661865234375
1737751387919692000,1.423692138671875,-0.1466064453125,-0.3227691650390625,-0.9331817626953125
1737751387929760000,1.433760009765625,-0.1371612548828125,-0.32098388671875,-0.9349517822265625
1737751387939828000,1.443827880859375,-0.13623046875,-0.3238677978515625,-0.9237213134765625
1737751387949896200,1.453896240234375,-0.142120361328125,-0.3337249755859375,-0.9118499755859375
1737751387959964200,1.463964111328125,-0.139068603515625,-0.342498779296875,-0.9073944091796875
1737751387970031900,1.474031982421875,-0.131134033203125,-0.3457183837890625,-0.90911865234375
1737751387980099800,1.484099853515625,-0.1237640380859375,-0.343414306640625,-0.9138031005859375
1737751387990168000,1.49416796875,-0.11822509765625,-0.335418701171875,-0.918243408203125
1737751388000236000,1.504236083984375,-0.1121673583984375,-0.32220458984375,-0.92071533203125
1737751388010304000,1.514303955078125,-0.1039276123046875,-0.308013916015625,-0.9260406494140625
1737751388020372000,1.5243720703125,-0.0933990478515625,-0.292572021484375,-0.934967041015625
1737751388030440200,1.534440185546875,-0.0841064453125,-0.278289794921875,-0.948883056640625
1737751388040507100,1.544507080078125,-0.074127197265625,-0.2703704833984375,-0.959716796875
1737751388050575000,1.5545751953125,-0.0650482177734375,-0.2707977294921875,-0.96722412109375
1737751388060643000,1.56464306640625,-0.059234619140625,-0.2770843505859375,-0.9756622314453125
1737751388070710800,1.574710693359375,-0.0565643310546875,-0.2806854248046875,-0.9849090576171875
1737751388080779000,1.584779052734375,-0.0511016845703125,-0.2814788818359375,-0.9929046630859375
1737751388090847000,1.594846923828125,-0.0496063232421875,-0.283050537109375,-1.0034942626953125
1737751388100915000,1.6049150390625,-0.0449371337890625,-0.28045654296875,-1.017181396484375
1737751388110983000,1.61498291015625,-0.03631591796875,-0.2730560302734375,-1.0274810791015625
1737751388121051100,1.625051025390625,-0.0291290283203125,-0.2689056396484375,-1.0385284423828125
1737751388131119000,1.635119140625,-0.0220947265625,-0.26873779296875,-1.0509185791015625
1737751388141187000,1.64518701171875,-0.0097808837890625,-0.269317626953125,-1.0612030029296875
1737751388151254800,1.6552548828125,-0.0034027099609375,-0.264495849609375,-1.0684967041015625
1737751388161323000,1.665322998046875,-0.0001373291015625,-0.257781982421875,-1.0773773193359375
1737751388171391000,1.675390869140625,0.0001373291015625,-0.2579803466796875,-1.0894927978515625
1737751388181459000,1.685458984375,-0.0033111572265625,-0.2609100341796875,-1.0989227294921875
1737751388191527000,1.69552685546875,-0.0064697265625,-0.2620086669921875,-1.10638427734375
1737751388201595100,1.70559521484375,-0.007659912109375,-0.2642822265625,-1.1092071533203125
1737751388211663000,1.7156630859375,-0.015594482421875,-0.2702484130859375,-1.111480712890625
1737751388221731000,1.72573095703125,-0.03204345703125,-0.279937744140625,-1.113983154296875
1737751388231798800,1.735798828125,-0.04022216796875,-0.288787841796875,-1.118927001953125
1737751388241867000,1.745866943359375,-0.0343780517578125,-0.2806854248046875,-1.121185302734375
1737751388251935000,1.75593505859375,-0.0466461181640625,-0.2513580322265625,-1.1001434326171875
1737751388262003000,1.7660029296875,-0.071624755859375,-0.2175750732421875,-1.064208984375
1737751388272071000,1.77607080078125,-0.071258544921875,-0.1896514892578125,-1.0372467041015625
1737751388282139100,1.78613916015625,-0.0915374755859375,-0.167266845703125,-1.0072784423828125
1737751388292207000,1.79620703125,-0.12359619140625,-0.157470703125,-0.972259521484375
1737751388302274800,1.80627490234375,-0.151153564453125,-0.166015625,-0.945465087890625
1737751388312342800,1.8163427734375,-0.1790924072265625,-0.180328369140625,-0.9226837158203125
1737751388322411000,1.826410888671875,-0.206146240234375,-0.188812255859375,-0.89471435546875
1737751388332478700,1.836478759765625,-0.23406982421875,-0.1905517578125,-0.8648681640625
1737751388342547000,1.846546875,-0.264678955078125,-0.1851043701171875,-0.8363189697265625
1737751388352615000,1.856614990234375,-0.2875823974609375,-0.17413330078125,-0.809478759765625
1737751388362683000,1.866682861328125,-0.2933502197265625,-0.161865234375,-0.7903289794921875
1737751388372750800,1.876750732421875,-0.2900848388671875,-0.15631103515625,-0.79132080078125
1737751388382818800,1.88681884765625,-0.284210205078125,-0.145965576171875,-0.8011016845703125
1737751388392886800,1.89688671875,-0.28125,-0.1334381103515625,-0.8089752197265625
1737751388402954800,1.906954833984375,-0.2687225341796875,-0.117034912109375,-0.8246612548828125
1737751388413022700,1.917022705078125,-0.264923095703125,-0.0982666015625,-0.842620849609375
1737751388423091000,1.927091064453125,-0.2631683349609375,-0.08050537109375,-0.8354034423828125
1737751388433159000,1.937158935546875,-0.2669219970703125,-0.061767578125,-0.8086090087890625
1737751388443227000,1.947226806640625,-0.209259033203125,-0.0595703125,-0.804229736328125
1737751388453294800,1.957294921875,-0.1788330078125,-0.078460693359375,-0.8432769775390625
1737751388463362800,1.96736279296875,-0.2042999267578125,-0.0956268310546875,-0.89471435546875
1737751388473430800,1.9774306640625,-0.1993255615234375,-0.076202392578125,-0.89886474609375
1737751388483498800,1.987498779296875,-0.185028076171875,-0.0501861572265625,-0.919342041015625
1737751388493567000,1.99756689453125,-0.3167266845703125,-0.057342529296875,-0.82733154296875
1737751388503635000,2.007635009765625,-0.2781982421875,-0.0848236083984375,-0.74554443359375
1737751388513702000,2.017701904296875,-0.2259674072265625,-0.150970458984375,-0.786956787109375
1737751388523769900,2.027769775390625,-0.235198974609375,-0.3322601318359375,-0.8094024658203125
1737751388533837800,2.037837890625,-0.18731689453125,-0.1936187744140625,-0.83642578125
1737751388543906000,2.047906005859375,-0.203857421875,-0.072265625,-0.81109619140625
1737751388553974000,2.05797412109375,-0.141204833984375,0.00091552734375,-0.886138916015625
1737751388564041700,2.068041748046875,-0.060302734375,0.0617218017578125,-1.1233673095703125
1737751388574109700,2.078109619140625,-0.01873779296875,0.148773193359375,-1.154693603515625
1737751388584178000,2.088177978515625,0.00830078125,0.17022705078125,-1.173828125
1737751388594246000,2.098245849609375,-0.006866455078125,0.0955810546875,-1.2454681396484375
1737751388604313900,2.10831396484375,0.0007171630859375,-0.00262451171875,-1.333984375
1737751388614381800,2.1183818359375,0.012420654296875,-0.0430908203125,-1.2729949951171875
1737751388624450000,2.128449951171875,0.0305328369140625,-0.0305938720703125,-1.2384490966796875
1737751388634518000,2.13851806640625,0.08856201171875,-0.0409698486328125,-1.254669189453125
1737751388644585700,2.148585693359375,0.059326171875,-0.13262939453125,-1.2407379150390625
1737751388654653700,2.15865380859375,0.0017547607421875,-0.12225341796875,-1.1857452392578125
1737751388664722000,2.168721923828125,0.0315399169921875,-0.167633056640625,-1.2683563232421875
1737751388674790000,2.178789794921875,0.047088623046875,-0.1622467041015625,-1.16412353515625
1737751388684857900,2.18885791015625,0.0159912109375,-0.0714874267578125,-1.013519287109375
1737751388694925800,2.19892578125,-0.0485992431640625,0.0765838623046875,-0.904449462890625
1737751388704994000,2.208994140625,-0.1478271484375,0.162628173828125,-0.8004150390625
1737751388715062000,2.21906201171875,-0.1317138671875,0.074005126953125,-0.8229827880859375
1737751388725129700,2.229129638671875,-0.1357269287109375,-0.1053314208984375,-0.9730072021484375
1737751388735197700,2.23919775390625,-0.1283416748046875,-0.21136474609375,-1.038726806640625
1737751388745266000,2.249265869140625,-0.1011199951171875,-0.185302734375,-1.044952392578125
1737751388755334000,2.259333984375,-0.0970306396484375,-0.0978240966796875,-1.0260772705078125
1737751388765401900,2.26940185546875,-0.1200408935546875,-0.021728515625,-0.9512939453125
1737751388775469800,2.2794697265625,-0.1578216552734375,0.0084686279296875,-0.8037872314453125
1737751388785538000,2.2895380859375,-0.155242919921875,-0.02215576171875,-0.7646484375
1737751388795606000,2.29960595703125,-0.145538330078125,-0.0685882568359375,-0.8082275390625
1737751388805673700,2.309673828125,-0.0918121337890625,-0.169097900390625,-0.9525604248046875
1737751388815741700,2.31974169921875,-0.0772552490234375,-0.2170867919921875,-1.049041748046875
1737751388825810000,2.329809814453125,-0.0893096923828125,-0.075927734375,-0.978759765625
1737751388835878000,2.3398779296875,-0.0780181884765625,0.0865325927734375,-0.9461822509765625
1737751388845945900,2.34994580078125,-0.0916290283203125,0.059112548828125,-0.9681243896484375
1737751388856013800,2.360013916015625,-0.0887298583984375,0.0035552978515625,-0.9491729736328125
1737751388866082000,2.37008203125,-0.1314544677734375,-0.05419921875,-0.93804931640625
1737751388876150000,2.38014990234375,-0.172637939453125,-0.174163818359375,-0.8519287109375
1737751388886217700,2.3902177734375,-0.1771087646484375,-0.0923004150390625,-0.84466552734375
1737751388896285700,2.40028564453125,-0.1352081298828125,0.052337646484375,-0.94097900390625
1737751388906354000,2.41035400390625,-0.059844970703125,0.0343780517578125,-1.059326171875
1737751388916422000,2.420421875,-0.0147705078125,-0.016754150390625,-1.1318359375
1737751388926489900,2.43048974609375,-0.010589599609375,-0.0400238037109375,-1.187652587890625
1737751388936557800,2.440557861328125,0.0008544921875,-0.004058837890625,-1.2794952392578125
1737751388946626000,2.4506259765625,0.0244598388671875,-0.0123748779296875,-1.278961181640625
1737751388956693800,2.46069384765625,-0.023468017578125,-0.12725830078125,-1.21685791015625
1737751388966761700,2.47076171875,-0.1391754150390625,-0.2376861572265625,-1.180816650390625
1737751388976829700,2.48082958984375,-0.2875518798828125,-0.125244140625,-0.9521942138671875
1737751388986898000,2.49089794921875,-0.323455810546875,0.0598907470703125,-0.9285430908203125
1737751388996966000,2.5009658203125,-0.327728271484375,0.0784454345703125,-1.054656982421875
1737751389007033900,2.511033935546875,-0.363739013671875,-0.02099609375,-1.0432586669921875
1737751389017101800,2.521101806640625,-0.384185791015625,-0.1153411865234375,-1.03106689453125
1737751389027170000,2.531170166015625,-0.4044342041015625,-0.1548309326171875,-1.067962646484375
1737751389037237800,2.54123779296875,-0.431549072265625,-0.139434814453125,-1.075042724609375
1737751389047305700,2.5513056640625,-0.4593658447265625,-0.05731201171875,-1.0303802490234375
1737751389057373700,2.561373779296875,-0.4095001220703125,0.0868072509765625,-0.9371490478515625
1737751389067442000,2.57144189453125,-0.3806610107421875,0.099822998046875,-0.8438873291015625
1737751389077510000,2.581510009765625,-0.4864654541015625,-0.0366668701171875,-0.884735107421875
1737751389087577900,2.591577880859375,-0.510223388671875,-0.03839111328125,-0.936676025390625
1737751389097645800,2.601645751953125,-0.4907989501953125,0.031341552734375,-0.943817138671875
1737751389107714000,2.611714111328125,-0.4807281494140625,0.0617218017578125,-0.8963470458984375
1737751389117781800,2.62178173828125,-0.486083984375,0.033966064453125,-0.8506927490234375
1737751389127849700,2.631849609375,-0.4892120361328125,0.017852783203125,-0.7501220703125
1737751389137917700,2.641917724609375,-0.5092315673828125,0.0158843994140625,-0.64593505859375
1737751389147985000,2.65198486328125,-0.5446929931640625,-0.0266876220703125,-0.5830841064453125
1737751389158052900,2.662052978515625,-0.5825653076171875,-0.1684417724609375,-0.5554656982421875
1737751389168120800,2.672120849609375,-0.4801025390625,-0.247955322265625,-0.571258544921875
1737751389178188800,2.682188720703125,-0.3131103515625,-0.1837005615234375,-0.686126708984375
1737751389188257000,2.692257080078125,-0.19189453125,-0.067718505859375,-0.912200927734375
1737751389198325000,2.702324951171875,-0.295623779296875,0.0163726806640625,-1.1617431640625
1737751389208393000,2.71239306640625,-0.23773193359375,0.0284881591796875,-1.2384796142578125
1737751389218460700,2.722460693359375,-0.1930999755859375,-0.049530029296875,-1.23358154296875
1737751389228529000,2.73252880859375,-0.2923736572265625,-0.1687164306640625,-1.1200408935546875
1737751389238596900,2.742596923828125,-0.363128662109375,-0.1957244873046875,-0.9672698974609375
1737751389248664800,2.752664794921875,-0.360565185546875,-0.1301422119140625,-0.8403778076171875
1737751389258732800,2.76273291015625,-0.4885406494140625,-0.0148162841796875,-0.7297515869140625
1737751389268801000,2.772801025390625,-0.5965576171875,0.07086181640625,-0.634307861328125
1737751389278869000,2.782868896484375,-0.707244873046875,0.0932464599609375,-0.6393585205078125
1737751389288937000,2.79293701171875,-0.688995361328125,0.0347747802734375,-0.8031463623046875
1737751389299004700,2.803004638671875,-0.6728973388671875,-0.0739898681640625,-0.7710418701171875
1737751389309073000,2.813072998046875,-0.686126708984375,-0.0890655517578125,-0.6895904541015625
1737751389319140900,2.823140869140625,-0.7855072021484375,-0.074005126953125,-0.5157470703125
1737751389329209300,2.833209228515625,-0.9201202392578125,-0.0898895263671875,-0.335357666015625
1737751389339277300,2.84327734375,-0.9175567626953125,-0.21392822265625,-0.480987548828125
1737751389349345300,2.85334521484375,-0.9024200439453125,-0.3155059814453125,-0.5074615478515625
1737751389359413500,2.86341357421875,-0.946990966796875,-0.3143768310546875,-0.4048919677734375
1737751389369481200,2.873481201171875,-0.975921630859375,-0.2378082275390625,-0.3485870361328125
1737751389379549200,2.883549072265625,-0.909454345703125,-0.1240081787109375,-0.4589691162109375
1737751389389617200,2.8936171875,-0.752349853515625,-0.1059417724609375,-0.652313232421875
1737751389399685400,2.903685302734375,-0.65130615234375,-0.1203765869140625,-0.810455322265625
1737751389409753300,2.91375341796875,-0.5819854736328125,-0.11279296875,-0.9006805419921875
1737751389419821300,2.9238212890625,-0.4180450439453125,-0.0601959228515625,-0.94281005859375
1737751389429889300,2.93388916015625,-0.36614990234375,0.0154266357421875,-0.9621124267578125
1737751389439957500,2.94395751953125,-0.3653564453125,0.0618743896484375,-0.969696044921875
1737751389450025200,2.954025146484375,-0.3407135009765625,0.079498291015625,-0.9799652099609375
1737751389460093200,2.96409326171875,-0.350738525390625,0.0861053466796875,-0.971466064453125
1737751389470161200,2.9741611328125,-0.366912841796875,0.0899200439453125,-0.9484710693359375
1737751389480229400,2.9842294921875,-0.3867645263671875,0.0934295654296875,-0.92230224609375
1737751389490297300,2.99429736328125,-0.40997314453125,0.0905609130859375,-0.9011993408203125
1737751389500365300,3.004365234375,-0.428253173828125,0.08514404296875,-0.886444091796875
1737751389510433300,3.014433349609375,-0.394287109375,0.089111328125,-0.8847503662109375
1737751389520501200,3.024501220703125,-0.337371826171875,0.110443115234375,-0.9002685546875
1737751389530569200,3.0345693359375,-0.29150390625,0.1419830322265625,-0.910430908203125
1737751389540637200,3.04463720703125,-0.2538909912109375,0.1535797119140625,-0.92352294921875
1737751389550705200,3.054705078125,-0.2272796630859375,0.1399993896484375,-0.9468841552734375
1737751389560773400,3.0647734375,-0.2244873046875,0.1236572265625,-0.9686279296875
1737751389570841300,3.07484130859375,-0.224273681640625,0.1215362548828125,-0.9850616455078125
1737751389580909300,3.084909423828125,-0.22039794921875,0.147308349609375,-0.995697021484375
1737751389590977300,3.094977294921875,-0.2130126953125,0.190704345703125,-0.997955322265625
1737751389601045200,3.105045166015625,-0.208404541015625,0.21954345703125,-1.0011749267578125
1737751389611113200,3.11511328125,-0.21087646484375,0.2211456298828125,-0.999908447265625
1737751389621181200,3.12518115234375,-0.2376556396484375,0.1931610107421875,-0.978546142578125
1737751389631249200,3.135249267578125,-0.262664794921875,0.1596832275390625,-0.94012451171875
1737751389641317400,3.1453173828125,-0.28765869140625,0.1483612060546875,-0.8972930908203125
1737751389651385300,3.15538525390625,-0.325286865234375,0.1678924560546875,-0.852691650390625
1737751389661453300,3.165453369140625,-0.3621063232421875,0.204833984375,-0.806243896484375
1737751389671521300,3.175521240234375,-0.3968048095703125,0.2393341064453125,-0.76934814453125
1737751389681589200,3.18558935546875,-0.4320526123046875,0.262359619140625,-0.748809814453125
1737751389691657200,3.1956572265625,-0.449676513671875,0.2680206298828125,-0.737152099609375
1737751389701725200,3.20572509765625,-0.4522552490234375,0.262359619140625,-0.72406005859375
1737751389711793200,3.215793212890625,-0.47802734375,0.24273681640625,-0.710540771484375
1737751389721861400,3.225861328125,-0.5356903076171875,0.203338623046875,-0.6872406005859375
1737751389731929300,3.235929443359375,-0.522674560546875,0.1604461669921875,-0.6490478515625
1737751389741997300,3.245997314453125,-0.4361724853515625,0.1608428955078125,-0.6422271728515625
1737751389752065300,3.256065185546875,-0.34857177734375,0.190093994140625,-0.69989013671875
1737751389762133200,3.26613330078125,-0.27618408203125,0.2078094482421875,-0.77362060546875
1737751389772201200,3.276201171875,-0.19305419921875,0.19927978515625,-0.762298583984375
1737751389782269200,3.286269287109375,-0.1176300048828125,0.21563720703125,-0.652313232421875
1737751389792337200,3.296337158203125,-0.181549072265625,0.268951416015625,-0.53509521484375
1737751389802405400,3.3064052734375,-0.3504638671875,0.2926025390625,-0.47308349609375
1737751389812472300,3.316472412109375,-0.4558258056640625,0.2652130126953125,-0.45294189453125
1737751389822540300,3.326540283203125,-0.47943115234375,0.2095794677734375,-0.482269287109375
1737751389832608300,3.336608154296875,-0.4691162109375,0.1360015869140625,-0.53778076171875
1737751389842676500,3.346676513671875,-0.42022705078125,0.0387725830078125,-0.612213134765625
1737751389852744400,3.356744384765625,-0.36785888671875,-0.061309814453125,-0.664642333984375
1737751389862812200,3.366812255859375,-0.32666015625,-0.1465911865234375,-0.6865692138671875
1737751389872880000,3.376880126953125,-0.3068084716796875,-0.2020721435546875,-0.7099456787109375
1737751389882948400,3.3869482421875,-0.311309814453125,-0.237579345703125,-0.7573089599609375
1737751389893016300,3.397016357421875,-0.301849365234375,-0.256866455078125,-0.8117523193359375
1737751389903084300,3.407084228515625,-0.2630615234375,-0.2545928955078125,-0.88555908203125
1737751389913152300,3.41715234375,-0.176361083984375,-0.2393798828125,-0.9791259765625
1737751389923220500,3.427220458984375,-0.0818634033203125,-0.2296600341796875,-1.0753173828125
1737751389933288400,3.437288330078125,-0.023345947265625,-0.240936279296875,-1.1551666259765625
1737751389943356200,3.447356201171875,-0.015106201171875,-0.2834320068359375,-1.2255706787109375
1737751389953424100,3.457424072265625,0.0273284912109375,-0.349334716796875,-1.2981109619140625
1737751389963492400,3.467492431640625,0.06207275390625,-0.3842620849609375,-1.3773956298828125
1737751389973560300,3.477560302734375,0.0859222412109375,-0.3634490966796875,-1.4334259033203125
1737751389983628300,3.487628173828125,0.11383056640625,-0.3089752197265625,-1.44781494140625
1737751389993696300,3.4976962890625,0.081634521484375,-0.2550048828125,-1.4174652099609375
1737751390003764500,3.507764404296875,0.0536346435546875,-0.238037109375,-1.3780670166015625
1737751390013832400,3.51783251953125,0.06878662109375,-0.2529449462890625,-1.3221893310546875
1737751390023900200,3.527900146484375,0.1278076171875,-0.259857177734375,-1.217132568359375
1737751390033968000,3.537968017578125,0.1653289794921875,-0.2676544189453125,-1.0927734375
1737751390044036400,3.548036376953125,0.2721710205078125,-0.355255126953125,-0.9731292724609375
1737751390054104300,3.558104248046875,0.1713104248046875,-0.525177001953125,-0.977020263671875
1737751390064172300,3.56817236328125,-0.0131378173828125,-0.733001708984375,-1.0171661376953125
1737751390074240300,3.578240234375,-0.022216796875,-0.837554931640625,-0.9250946044921875
1737751390084308500,3.58830859375,-0.1398468017578125,-0.865509033203125,-0.7392730712890625
1737751390094376400,3.59837646484375,-0.213958740234375,-0.875823974609375,-0.620574951171875
1737751390104444200,3.608444091796875,-0.21051025390625,-0.81689453125,-0.565887451171875
1737751390114512100,3.61851220703125,-0.3640289306640625,-0.81549072265625,-0.609619140625
1737751390124580400,3.628580322265625,-0.3522796630859375,-0.811553955078125,-0.731048583984375
1737751390134648300,3.6386484375,-0.2168426513671875,-0.7491455078125,-0.7509002685546875
1737751390144716300,3.64871630859375,-0.1552276611328125,-0.722625732421875,-0.7292633056640625
1737751390154784300,3.6587841796875,-0.1457061767578125,-0.74200439453125,-0.73626708984375
1737751390164852500,3.6688525390625,-0.1295166015625,-0.770721435546875,-0.7497406005859375
1737751390174920400,3.67892041015625,-0.143585205078125,-0.782379150390625,-0.729248046875
1737751390184988200,3.68898828125,-0.12481689453125,-0.7947845458984375,-0.6724395751953125
1737751390195056000,3.69905615234375,-0.1266937255859375,-0.759307861328125,-0.572174072265625
1737751390205124400,3.709124267578125,-0.33050537109375,-0.76959228515625,-0.421051025390625
1737751390215192300,3.7191923828125,-0.4839630126953125,-0.8976898193359375,-0.2764129638671875
1737751390225260300,3.72926025390625,-0.554107666015625,-1.016937255859375,-0.1041412353515625
1737751390235328300,3.739328369140625,-0.6199493408203125,-1.0678253173828125,-0.0619659423828125
1737751390245396500,3.749396484375,-0.6277618408203125,-1.09942626953125,-0.25811767578125
1737751390255464200,3.759464111328125,-0.6241607666015625,-1.1147613525390625,-0.562652587890625
1737751390265532200,3.7695322265625,-0.601348876953125,-1.089324951171875,-0.79986572265625
1737751390275600100,3.77960009765625,-0.4818115234375,-1.00579833984375,-0.9135894775390625
1737751390285668400,3.78966845703125,-0.2888336181640625,-0.881622314453125,-0.9250335693359375
1737751390295736300,3.799736328125,-0.197723388671875,-0.780517578125,-0.903656005859375
1737751390305804300,3.80980419921875,-0.2445220947265625,-0.7964019775390625,-0.8837127685546875
1737751390315872300,3.819872314453125,-0.3564910888671875,-0.9146575927734375,-0.8567962646484375
1737751390325940500,3.8299404296875,-0.404022216796875,-0.9877777099609375,-0.82049560546875
1737751390336007700,3.840007568359375,-0.3433685302734375,-0.8205413818359375,-0.7897491455078125
1737751390346075600,3.85007568359375,-0.2736358642578125,-0.512237548828125,-0.826507568359375
1737751390356143400,3.860143310546875,-0.2803192138671875,-0.2992401123046875,-0.8958740234375
1737751390366211600,3.870211669921875,-0.3275909423828125,-0.236114501953125,-0.912353515625
1737751390376278500,3.880278564453125,-0.39154052734375,-0.284027099609375,-0.849609375
1737751390386346500,3.890346435546875,-0.464447021484375,-0.3802490234375,-0.7458038330078125
1737751390396414500,3.90041455078125,-0.5109100341796875,-0.4604644775390625,-0.654388427734375
1737751390406482400,3.910482421875,-0.5153656005859375,-0.5169830322265625,-0.5949249267578125
1737751390416550700,3.920550537109375,-0.4969024658203125,-0.565399169921875,-0.546905517578125
1737751390426618600,3.93061865234375,-0.49560546875,-0.604461669921875,-0.4849700927734375
1737751390436686600,3.9406865234375,-0.5223541259765625,-0.618560791015625,-0.41259765625
1737751390446754600,3.950754638671875,-0.55908203125,-0.6051483154296875,-0.3616180419921875
1737751390456822500,3.960822509765625,-0.5783538818359375,-0.5804901123046875,-0.3365020751953125
1737751390466890500,3.970890380859375,-0.5770416259765625,-0.5673370361328125,-0.3350677490234375
1737751390476958500,3.98095849609375,-0.5593109130859375,-0.57574462890625,-0.3532257080078125
1737751390487026400,3.9910263671875,-0.5282135009765625,-0.59326171875,-0.3845977783203125
1737751390497094700,4.0010947265625,-0.4976654052734375,-0.607635498046875,-0.4245452880859375
1737751390507162600,4.01116259765625,-0.4686431884765625,-0.626007080078125,-0.4668731689453125
1737751390517230600,4.021230712890625,-0.44384765625,-0.625274658203125,-0.495574951171875
1737751390527298600,4.031298583984375,-0.4246978759765625,-0.59515380859375,-0.5009307861328125
1737751390537366500,4.041366455078125,-0.4074249267578125,-0.55767822265625,-0.493988037109375
1737751390547434500,4.0514345703125,-0.410919189453125,-0.5296173095703125,-0.494049072265625
1737751390557502500,4.06150244140625,-0.427825927734375,-0.5122833251953125,-0.505340576171875
1737751390567570400,4.0715703125,-0.4346771240234375,-0.4971923828125,-0.5054473876953125
1737751390577638700,4.081638671875,-0.4399261474609375,-0.4855804443359375,-0.5028839111328125
1737751390587706600,4.09170654296875,-0.4615478515625,-0.48291015625,-0.5046844482421875
1737751390597774600,4.101774658203125,-0.486572265625,-0.4882659912109375,-0.5057373046875
1737751390607842600,4.111842529296875,-0.505523681640625,-0.491729736328125,-0.5070037841796875
1737751390617910500,4.12191064453125,-0.5278778076171875,-0.483154296875,-0.5011444091796875
1737751390627978500,4.131978515625,-0.555084228515625,-0.462158203125,-0.4887847900390625
1737751390638046500,4.14204638671875,-0.5754241943359375,-0.44561767578125,-0.482269287109375
1737751390648114400,4.152114501953125,-0.5921478271484375,-0.4422149658203125,-0.490203857421875
1737751390658182700,4.1621826171875,-0.5871734619140625,-0.4500885009765625,-0.509185791015625
1737751390668250600,4.172250732421875,-0.5709075927734375,-0.468719482421875,-0.538055419921875
1737751390678318600,4.182318603515625,-0.5536041259765625,-0.49053955078125,-0.5703125
1737751390688386600,4.192386474609375,-0.531524658203125,-0.5101165771484375,-0.594268798828125
1737751390698454500,4.20245458984375,-0.5157470703125,-0.526885986328125,-0.6051177978515625
1737751390708522500,4.2125224609375,-0.5080718994140625,-0.5412445068359375,-0.6056976318359375
1737751390718590500,4.222590576171875,-0.498046875,-0.54278564453125,-0.5972137451171875
1737751390728658400,4.232658447265625,-0.5191650390625,-0.53497314453125,-0.5760040283203125
1737751390738726700,4.2427265625,-0.53094482421875,-0.53045654296875,-0.5491943359375
1737751390748793600,4.252793701171875,-0.536376953125,-0.5251617431640625,-0.517120361328125
1737751390758861600,4.262861572265625,-0.54833984375,-0.5065765380859375,-0.4897613525390625
1737751390768929500,4.272929443359375,-0.559661865234375,-0.500579833984375,-0.4671783447265625
1737751390778997500,4.28299755859375,-0.5548248291015625,-0.5129852294921875,-0.4401397705078125
1737751390789065500,4.2930654296875,-0.5447998046875,-0.521728515625,-0.404052734375
1737751390799133400,4.303133544921875,-0.5543670654296875,-0.536865234375,-0.36834716796875
1737751390809201400,4.313201416015625,-0.5479888916015625,-0.5635223388671875,-0.3365936279296875
1737751390819269600,4.32326953125,-0.5780792236328125,-0.5979156494140625,-0.3094635009765625
1737751390829337600,4.333337646484375,-0.577239990234375,-0.64483642578125,-0.291778564453125
1737751390839405600,4.343405517578125,-0.55096435546875,-0.709381103515625,-0.274322509765625
1737751390849473500,4.3534736328125,-0.5423736572265625,-0.7822418212890625,-0.2637939453125
1737751390859541800,4.363541748046875,-0.5215301513671875,-0.8492279052734375,-0.2570953369140625
1737751390869609500,4.373609375,-0.4841461181640625,-0.9104461669921875,-0.24114990234375
1737751390879677400,4.383677490234375,-0.4440460205078125,-0.981658935546875,-0.223968505859375
1737751390889745400,4.393745361328125,-0.4045257568359375,-1.077484130859375,-0.2153167724609375
1737751390899813600,4.403813720703125,-0.373687744140625,-1.168487548828125,-0.20977783203125
1737751390909881600,4.413881591796875,-0.3518218994140625,-1.214630126953125,-0.1954345703125
1737751390919949600,4.423949462890625,-0.3325347900390625,-1.2451629638671875,-0.173004150390625
1737751390930017500,4.434017578125,-0.3208465576171875,-1.286834716796875,-0.1521148681640625
1737751390940085800,4.444085693359375,-0.314056396484375,-1.3021240234375,-0.1150360107421875
1737751390950153500,4.454153564453125,-0.315521240234375,-1.30517578125,-0.0715484619140625
1737751390960221400,4.464221435546875,-0.3226470947265625,-1.3256988525390625,-0.0294952392578125
1737751390970289400,4.474289306640625,-0.338134765625,-1.3473052978515625,0.0051422119140625
1737751390980357600,4.484357666015625,-0.350494384765625,-1.345855712890625,0.0285491943359375
1737751390990425600,4.494425537109375,-0.3584747314453125,-1.33099365234375,0.041717529296875
1737751391000493600,4.50449365234375,-0.3692169189453125,-1.2996673583984375,0.046356201171875
1737751391010561500,4.5145615234375,-0.386749267578125,-1.259918212890625,0.0386810302734375
1737751391020629800,4.524629638671875,-0.4053192138671875,-1.2252960205078125,0.021087646484375
1737751391030697500,4.534697509765625,-0.4111175537109375,-1.184234619140625,-0.0072021484375
1737751391040765400,4.544765380859375,-0.411834716796875,-1.135894775390625,-0.050506591796875
1737751391050833400,4.55483349609375,-0.4107208251953125,-1.096649169921875,-0.1218414306640625
1737751391060901600,4.564901611328125,-0.405059814453125,-1.0679779052734375,-0.210723876953125
1737751391070968600,4.574968505859375,-0.392578125,-1.0400238037109375,-0.3039398193359375
1737751391081036500,4.58503662109375,-0.37469482421875,-1.0112152099609375,-0.395172119140625
1737751391091104500,4.5951044921875,-0.3477935791015625,-0.974884033203125,-0.4730072021484375
1737751391101172500,4.60517236328125,-0.3163299560546875,-0.9468536376953125,-0.538330078125
1737751391111240700,4.61524072265625,-0.29241943359375,-0.93487548828125,-0.5848236083984375
1737751391121308700,4.62530859375,-0.272857666015625,-0.935699462890625,-0.6027069091796875
1737751391131376400,4.63537646484375,-0.2554931640625,-0.9469146728515625,-0.59222412109375
1737751391141444400,4.6454443359375,-0.23956298828125,-0.9724578857421875,-0.5657958984375
1737751391151512600,4.6555126953125,-0.2286376953125,-1.00506591796875,-0.5335693359375
1737751391161580500,4.66558056640625,-0.22332763671875,-1.02410888671875,-0.4913787841796875
1737751391171648500,4.6756484375,-0.2265777587890625,-1.011688232421875,-0.4335784912109375
1737751391181716500,4.685716552734375,-0.236602783203125,-0.9833984375,-0.3725738525390625
1737751391191784700,4.69578466796875,-0.24041748046875,-0.9505157470703125,-0.316619873046875
1737751391201852700,4.705852783203125,-0.246246337890625,-0.9294891357421875,-0.2650604248046875
1737751391211920400,4.71592041015625,-0.2572784423828125,-0.91162109375,-0.2221527099609375
1737751391221988400,4.72598828125,-0.26739501953125,-0.8951263427734375,-0.19158935546875
1737751391232056600,4.736056640625,-0.271087646484375,-0.8776702880859375,-0.17218017578125
1737751391242124500,4.74612451171875,-0.270843505859375,-0.865936279296875,-0.161712646484375
1737751391252192500,4.756192626953125,-0.2703399658203125,-0.855743408203125,-0.1625518798828125
1737751391262260500,4.766260498046875,-0.269500732421875,-0.850189208984375,-0.178497314453125
1737751391272328700,4.77632861328125,-0.26507568359375,-0.8499298095703125,-0.20758056640625
1737751391282396700,4.786396728515625,-0.256317138671875,-0.8408966064453125,-0.2432708740234375
1737751391292464400,4.79646435546875,-0.2422637939453125,-0.8226318359375,-0.2832489013671875
1737751391302532400,4.806532470703125,-0.2310791015625,-0.812103271484375,-0.33282470703125
1737751391312600600,4.8166005859375,-0.2266998291015625,-0.8209228515625,-0.396240234375
1737751391322668500,4.82666845703125,-0.2291412353515625,-0.828704833984375,-0.4598236083984375
1737751391332737000,4.836737060546875,-0.22802734375,-0.8193511962890625,-0.515350341796875
1737751391342805200,4.84680517578125,-0.2339630126953125,-0.794586181640625,-0.558624267578125
1737751391352873000,4.856873046875,-0.253814697265625,-0.76165771484375,-0.5912933349609375
1737751391362941000,4.86694091796875,-0.275543212890625,-0.734954833984375,-0.6140289306640625
1737751391373009000,4.8770087890625,-0.3029022216796875,-0.7260284423828125,-0.6307525634765625
1737751391383077000,4.8870771484375,-0.3138580322265625,-0.73553466796875,-0.6400604248046875
1737751391393145000,4.89714501953125,-0.3121795654296875,-0.7572479248046875,-0.6410064697265625
1737751391403213000,4.907213134765625,-0.3078460693359375,-0.78350830078125,-0.641998291015625
1737751391413281000,4.917281005859375,-0.30169677734375,-0.8025665283203125,-0.64111328125
1737751391423349200,4.927349365234375,-0.2957763671875,-0.8108978271484375,-0.6321258544921875
1737751391433416200,4.937416259765625,-0.2994842529296875,-0.815185546875,-0.6085357666015625
1737751391443484200,4.947484130859375,-0.3010711669921875,-0.81585693359375,-0.5788726806640625
1737751391453552000,4.95755224609375,-0.296356201171875,-0.821502685546875,-0.55126953125
1737751391463619800,4.967619873046875,-0.2947235107421875,-0.8382568359375,-0.5245819091796875
1737751391473688000,4.97768798828125,-0.2912139892578125,-0.8505859375,-0.5034332275390625
1737751391483756000,4.987756103515625,-0.2860260009765625,-0.8541717529296875,-0.47821044921875
1737751391493824000,4.997823974609375,-0.2850341796875,-0.85107421875,-0.4524078369140625
1737751391503892000,5.00789208984375,-0.2913360595703125,-0.8451385498046875,-0.43231201171875
1737751391513960200,5.017960205078125,-0.2946624755859375,-0.8427581787109375,-0.41424560546875
1737751391524028200,5.028028076171875,-0.2962188720703125,-0.8395538330078125,-0.3975067138671875
1737751391534096100,5.03809619140625,-0.2998046875,-0.8377532958984375,-0.3844146728515625
1737751391544163800,5.048163818359375,-0.2994384765625,-0.838104248046875,-0.3757476806640625
1737751391554232000,5.058232177734375,-0.3048553466796875,-0.8372650146484375,-0.371246337890625
1737751391564300000,5.068300048828125,-0.306884765625,-0.8288726806640625,-0.372406005859375
1737751391574368000,5.078367919921875,-0.3026123046875,-0.8148345947265625,-0.3787841796875
1737751391584436000,5.08843603515625,-0.2952423095703125,-0.806732177734375,-0.3943939208984375
1737751391594504200,5.098504150390625,-0.2911834716796875,-0.8064117431640625,-0.4223480224609375
1737751391604572200,5.108572265625,-0.2842254638671875,-0.80633544921875,-0.4528961181640625
1737751391614639900,5.118639892578125,-0.2715911865234375,-0.80322265625,-0.480010986328125
1737751391624707800,5.128707763671875,-0.26165771484375,-0.80859375,-0.5048370361328125
1737751391634776000,5.138776123046875,-0.2574615478515625,-0.823333740234375,-0.529205322265625
1737751391644844000,5.148843994140625,-0.2599639892578125,-0.82623291015625,-0.548248291015625
1737751391654912000,5.158912109375,-0.2667083740234375,-0.8128814697265625,-0.562103271484375
1737751391664980000,5.16897998046875,-0.264984130859375,-0.7928009033203125,-0.568206787109375
1737751391675048200,5.179048095703125,-0.2530517578125,-0.769256591796875,-0.574188232421875
1737751391685116200,5.1891162109375,-0.2390899658203125,-0.7506256103515625,-0.590789794921875
1737751391695184000,5.199183837890625,-0.2230682373046875,-0.738677978515625,-0.61468505859375
1737751391705251800,5.209251953125,-0.1958160400390625,-0.7360382080078125,-0.6353607177734375
1737751391715320000,5.219320068359375,-0.16278076171875,-0.7376556396484375,-0.6403656005859375
1737751391725388000,5.229387939453125,-0.1322021484375,-0.73638916015625,-0.6337127685546875
1737751391735456000,5.2394560546875,-0.105224609375,-0.738494873046875,-0.62353515625
1737751391745524000,5.24952392578125,-0.0819091796875,-0.746917724609375,-0.6054229736328125
1737751391755592200,5.25959228515625,-0.0621490478515625,-0.7593231201171875,-0.5749359130859375
1737751391765660200,5.26966015625,-0.0551910400390625,-0.779998779296875,-0.538177490234375
1737751391775727000,5.27972705078125,-0.054412841796875,-0.8131103515625,-0.5029754638671875
1737751391785795000,5.289795166015625,-0.051788330078125,-0.8544769287109375,-0.4690399169921875
1737751391795863000,5.299863037109375,-0.052520751953125,-0.897918701171875,-0.43035888671875
1737751391805931000,5.309930908203125,-0.0558929443359375,-0.931793212890625,-0.3912811279296875
1737751391815999000,5.3199990234375,-0.0654296875,-0.9520721435546875,-0.3476715087890625
1737751391826067000,5.33006689453125,-0.0716400146484375,-0.9665985107421875,-0.3041534423828125
1737751391836135200,5.34013525390625,-0.069915771484375,-0.98187255859375,-0.2724609375
1737751391846203100,5.350203125,-0.0665740966796875,-0.9936370849609375,-0.2518768310546875
1737751391856271000,5.36027099609375,-0.070343017578125,-1.0025177001953125,-0.2378692626953125
1737751391866339000,5.370339111328125,-0.0769195556640625,-1.0077056884765625,-0.2260894775390625
1737751391876407000,5.380406982421875,-0.0782318115234375,-1.01214599609375,-0.2181396484375
1737751391886475000,5.39047509765625,-0.083465576171875,-1.0299224853515625,-0.2151031494140625
1737751391896543000,5.40054296875,-0.08941650390625,-1.0354766845703125,-0.209625244140625
1737751391906611000,5.41061083984375,-0.095672607421875,-1.0247802734375,-0.2039794921875
1737751391916679200,5.42067919921875,-0.1019134521484375,-1.0178680419921875,-0.2039031982421875
1737751391926747100,5.4307470703125,-0.1133575439453125,-1.0157928466796875,-0.2093353271484375
1737751391936815000,5.440815185546875,-0.1239776611328125,-1.012176513671875,-0.2158355712890625
1737751391946883000,5.450883056640625,-0.1317596435546875,-1.0021514892578125,-0.2248687744140625
1737751391956951000,5.460950927734375,-0.1311798095703125,-0.9910888671875,-0.236541748046875
1737751391967019000,5.47101904296875,-0.134429931640625,-0.986572265625,-0.2540740966796875
1737751391977087000,5.4810869140625,-0.140899658203125,-0.994354248046875,-0.274383544921875
1737751391987155000,5.491155029296875,-0.1491851806640625,-1.00408935546875,-0.2917938232421875
1737751391997223200,5.50122314453125,-0.1548309326171875,-1.00567626953125,-0.302276611328125
1737751392007291100,5.511291015625,-0.1564178466796875,-0.999755859375,-0.308258056640625
1737751392017359000,5.521359130859375,-0.1541900634765625,-0.99322509765625,-0.3177642822265625
1737751392027427000,5.531427001953125,-0.1473236083984375,-0.997528076171875,-0.3311614990234375
1737751392037495000,5.5414951171875,-0.1370086669921875,-1.0048828125,-0.3433074951171875
1737751392047563000,5.55156298828125,-0.13189697265625,-1.014404296875,-0.35223388671875
1737751392057631000,5.561630859375,-0.1319732666015625,-1.0202178955078125,-0.3529815673828125
1737751392067699000,5.571698974609375,-0.1298828125,-1.0136871337890625,-0.3446044921875
1737751392077767200,5.58176708984375,-0.12664794921875,-1.0064544677734375,-0.3339691162109375
1737751392087834000,5.591834228515625,-0.1295013427734375,-1.006561279296875,-0.324462890625
1737751392097902000,5.601902099609375,-0.1371307373046875,-1.009979248046875,-0.312103271484375
1737751392107970000,5.611969970703125,-0.1414642333984375,-1.0060272216796875,-0.2935943603515625
1737751392118038000,5.6220380859375,-0.1439666748046875,-0.998077392578125,-0.277374267578125
1737751392128106200,5.632106201171875,-0.143646240234375,-0.9926910400390625,-0.2676239013671875
1737751392138174000,5.642174072265625,-0.1408538818359375,-0.9832763671875,-0.26434326171875
1737751392148242000,5.652241943359375,-0.13079833984375,-0.97821044921875,-0.27044677734375
1737751392158310000,5.662309814453125,-0.12457275390625,-0.9784698486328125,-0.2740020751953125
1737751392168378000,5.672378173828125,-0.117706298828125,-0.985595703125,-0.2794647216796875
1737751392178446000,5.682446044921875,-0.1094818115234375,-1.0095672607421875,-0.2928466796875
1737751392188514000,5.69251416015625,-0.10528564453125,-1.0401763916015625,-0.3097991943359375
1737751392198582000,5.70258203125,-0.1124267578125,-1.057098388671875,-0.3226165771484375
1737751392208650200,5.712650146484375,-0.124114990234375,-1.054229736328125,-0.3289337158203125
1737751392218718000,5.722718017578125,-0.1413421630859375,-1.0277252197265625,-0.325592041015625
1737751392228786000,5.732785888671875,-0.1587982177734375,-0.97735595703125,-0.3147430419921875
1737751392238854000,5.74285400390625,-0.169769287109375,-0.92437744140625,-0.3030548095703125
1737751392248922000,5.752922119140625,-0.175140380859375,-0.8931427001953125,-0.2869415283203125
1737751392258990000,5.762989990234375,-0.176910400390625,-0.887359619140625,-0.2704010009765625
1737751392269058000,5.77305810546875,-0.1739959716796875,-0.8992767333984375,-0.263153076171875
1737751392279126000,5.7831259765625,-0.1694488525390625,-0.925384521484375,-0.2506561279296875
1737751392289194000,5.793194091796875,-0.1677093505859375,-0.9588165283203125,-0.2132415771484375
1737751392299262000,5.803261962890625,-0.165496826171875,-0.98626708984375,-0.153228759765625
1737751392309330000,5.813329833984375,-0.1677703857421875,-0.9993438720703125,-0.0852203369140625
1737751392319398000,5.82339794921875,-0.1750946044921875,-0.986846923828125,-0.028839111328125
1737751392329466000,5.833466064453125,-0.180572509765625,-0.93798828125,-0.0359649658203125
1737751392339533600,5.843533447265625,-0.2106170654296875,-0.876953125,0.1424560546875
1737751392349601500,5.8536015625,-0.2365264892578125,-0.8546142578125,0.19696044921875
1737751392359669500,5.86366943359375,-0.246734619140625,-0.8159332275390625,0.1927490234375
1737751392369737700,5.87373779296875,-0.2653961181640625,-0.755645751953125,0.1816253662109375
1737751392379805400,5.883805419921875,-0.2788543701171875,-0.71514892578125,0.1484222412109375
1737751392389872600,5.89387255859375,-0.2855987548828125,-0.70263671875,0.112274169921875
1737751392399940600,5.903940673828125,-0.3011627197265625,-0.7086029052734375,0.0857086181640625
1737751392410008300,5.91400830078125,-0.31414794921875,-0.71820068359375,0.067047119140625
1737751392420076500,5.92407666015625,-0.3106689453125,-0.70916748046875,0.0545501708984375
1737751392430144500,5.93414453125,-0.2994842529296875,-0.683837890625,0.0565032958984375
1737751392440212500,5.94421240234375,-0.2911224365234375,-0.66143798828125,0.06158447265625
1737751392450280400,5.954280517578125,-0.2877197265625,-0.6601104736328125,0.0584259033203125
1737751392460348700,5.9643486328125,-0.2791595458984375,-0.6732177734375,0.0480499267578125
1737751392470416600,5.974416748046875,-0.26904296875,-0.6899566650390625,0.048095703125
1737751392480484600,5.984484619140625,-0.2639007568359375,-0.698150634765625,0.065582275390625
1737751392490552300,5.99455224609375,-0.265228271484375,-0.705963134765625,0.0935516357421875
1737751392500620500,6.00462060546875,-0.265228271484375,-0.7192535400390625,0.126983642578125
1737751392510688500,6.0146884765625,-0.265838623046875,-0.73492431640625,0.1631317138671875
1737751392520756500,6.024756591796875,-0.2645721435546875,-0.7487030029296875,0.1937408447265625
1737751392530824400,6.034824462890625,-0.25640869140625,-0.7648468017578125,0.2122802734375
1737751392540892700,6.044892578125,-0.2502288818359375,-0.7844696044921875,0.2274017333984375
1737751392550960600,6.054960693359375,-0.2447967529296875,-0.801727294921875,0.2559356689453125
1737751392561028600,6.065028564453125,-0.244049072265625,-0.8234710693359375,0.2895050048828125
1737751392571096300,6.075096435546875,-0.254425048828125,-0.844451904296875,0.3171539306640625
1737751392581164500,6.08516455078125,-0.266876220703125,-0.867095947265625,0.3363189697265625
1737751392591232500,6.095232421875,-0.287078857421875,-0.8834381103515625,0.3483428955078125
1737751392601300500,6.105300537109375,-0.3079833984375,-0.8936920166015625,0.3475799560546875
1737751392611368700,6.11536865234375,-0.335784912109375,-0.899139404296875,0.3317718505859375
1737751392621436700,6.125436767578125,-0.3642578125,-0.907257080078125,0.3101654052734375
1737751392631504600,6.135504638671875,-0.3788299560546875,-0.91717529296875,0.2863922119140625
1737751392641572400,6.145572265625,-0.3933563232421875,-0.9210205078125,0.2570648193359375
1737751392651639600,6.1556396484375,-0.4076995849609375,-0.9152374267578125,0.2311248779296875
1737751392661707500,6.16570751953125,-0.4178314208984375,-0.90521240234375,0.2120361328125
1737751392671775500,6.175775390625,-0.4248504638671875,-0.8850250244140625,0.19989013671875
1737751392681843500,6.185843505859375,-0.42938232421875,-0.8614044189453125,0.19305419921875
1737751392691911400,6.195911376953125,-0.42645263671875,-0.8412017822265625,0.1866912841796875
1737751392701979600,6.205979736328125,-0.4163055419921875,-0.8363189697265625,0.1834259033203125
1737751392712047600,6.216047607421875,-0.4082183837890625,-0.8361968994140625,0.185211181640625
1737751392722115600,6.226115478515625,-0.39422607421875,-0.8297119140625,0.19842529296875
1737751392732183600,6.23618359375,-0.3754730224609375,-0.82318115234375,0.2153778076171875
1737751392742251500,6.24625146484375,-0.3620452880859375,-0.81658935546875,0.2354583740234375
1737751392752319500,6.256319580078125,-0.3497772216796875,-0.8043365478515625,0.2617950439453125
1737751392762387500,6.266387451171875,-0.3456878662109375,-0.787109375,0.2860870361328125
1737751392772455400,6.276455322265625,-0.3460540771484375,-0.769927978515625,0.3148345947265625
1737751392782523600,6.286523681640625,-0.3568115234375,-0.7564544677734375,0.3459014892578125
1737751392792591600,6.296591552734375,-0.377410888671875,-0.7530975341796875,0.366729736328125
1737751392802659600,6.30665966796875,-0.3993072509765625,-0.745452880859375,0.381439208984375
1737751392812727600,6.3167275390625,-0.414825439453125,-0.7407379150390625,0.37713623046875
1737751392822795500,6.32679541015625,-0.4237060546875,-0.7382049560546875,0.36297607421875
1737751392832863500,6.336863525390625,-0.4250640869140625,-0.739013671875,0.34783935546875
1737751392842931500,6.346931396484375,-0.42303466796875,-0.7539825439453125,0.331756591796875
1737751392852999400,6.35699951171875,-0.4199676513671875,-0.7818756103515625,0.3161163330078125
1737751392863067600,6.367067626953125,-0.41510009765625,-0.8160552978515625,0.305084228515625
1737751392873135600,6.377135498046875,-0.412200927734375,-0.8437652587890625,0.292694091796875
1737751392883203600,6.38720361328125,-0.42169189453125,-0.8588409423828125,0.2783355712890625
1737751392893271600,6.397271484375,-0.4394073486328125,-0.87017822265625,0.2599945068359375
1737751392903339500,6.407339599609375,-0.450531005859375,-0.8852691650390625,0.24224853515625
1737751392913406700,6.41740673828125,-0.46160888671875,-0.8964996337890625,0.2336883544921875
1737751392923474400,6.427474365234375,-0.47747802734375,-0.89508056640625,0.233978271484375
1737751392933542400,6.43754248046875,-0.4854278564453125,-0.891876220703125,0.2461395263671875
1737751392943610400,6.4476103515625,-0.4942169189453125,-0.9029083251953125,0.256134033203125
1737751392953678600,6.4576787109375,-0.5027313232421875,-0.9320526123046875,0.2484283447265625
1737751392963746600,6.46774658203125,-0.50640869140625,-0.9622344970703125,0.227447509765625
1737751392973814500,6.477814453125,-0.514984130859375,-0.974884033203125,0.2128143310546875
1737751392983882500,6.487882568359375,-0.5311126708984375,-0.982330322265625,0.20843505859375
1737751392993950700,6.49795068359375,-0.5494232177734375,-0.98516845703125,0.20465087890625
1737751393004018400,6.508018310546875,-0.56744384765625,-0.9818572998046875,0.2068328857421875
1737751393014086400,6.51808642578125,-0.58404541015625,-0.9788055419921875,0.2092132568359375
1737751393024154400,6.528154296875,-0.602813720703125,-0.967041015625,0.1958160400390625
1737751393034222600,6.53822265625,-0.623199462890625,-0.9535369873046875,0.174530029296875
1737751393044290600,6.54829052734375,-0.635833740234375,-0.9505462646484375,0.1604461669921875
1737751393054358500,6.558358642578125,-0.6409149169921875,-0.9373626708984375,0.1519622802734375
1737751393064426500,6.568426513671875,-0.63916015625,-0.906036376953125,0.145111083984375
1737751393074494700,6.57849462890625,-0.6331329345703125,-0.8787689208984375,0.1385955810546875
1737751393084562400,6.5885625,-0.6303863525390625,-0.857147216796875,0.1287078857421875
1737751393094630400,6.59863037109375,-0.6316070556640625,-0.834075927734375,0.115447998046875
1737751393104698600,6.60869873046875,-0.628509521484375,-0.822601318359375,0.0985870361328125
1737751393114766600,6.6187666015625,-0.6237335205078125,-0.8189544677734375,0.0770111083984375
1737751393124834600,6.62883447265625,-0.623443603515625,-0.8195343017578125,0.0544586181640625
1737751393134901500,6.638901611328125,-0.627716064453125,-0.8203277587890625,0.0367279052734375
1737751393144970800,6.648970703125,-0.63079833984375,-0.801971435546875,0.0317535400390625
1737751393155037700,6.65903759765625,-0.6356658935546875,-0.7757110595703125,0.033599853515625
1737751393165105700,6.669105712890625,-0.63800048828125,-0.758544921875,0.0326080322265625
1737751393175173600,6.679173583984375,-0.626190185546875,-0.7399139404296875,0.0189208984375
1737751393185241300,6.689241455078125,-0.6182708740234375,-0.7106781005859375,0.0062408447265625
1737751393195309600,6.6993095703125,-0.6215057373046875,-0.691070556640625,-0.002410888671875
1737751393205377500,6.70937744140625,-0.6362457275390625,-0.6927032470703125,-0.0073089599609375
1737751393215445500,6.719445556640625,-0.654876708984375,-0.7075653076171875,-0.004486083984375
1737751393225513500,6.729513427734375,-0.6671600341796875,-0.73040771484375,0.005828857421875
1737751393235581700,6.739581787109375,-0.6782379150390625,-0.7511138916015625,0.017669677734375
1737751393245649700,6.749649658203125,-0.6883087158203125,-0.7559967041015625,0.036285400390625
1737751393255717600,6.759717529296875,-0.6981201171875,-0.7427520751953125,0.055328369140625
1737751393265785300,6.769785400390625,-0.7076263427734375,-0.7250518798828125,0.0764312744140625
1737751393275853600,6.779853515625,-0.716339111328125,-0.69708251953125,0.101470947265625
1737751393285921500,6.789921630859375,-0.7195892333984375,-0.6428070068359375,0.13531494140625
1737751393295989500,6.799989501953125,-0.7283172607421875,-0.5948944091796875,0.174530029296875
1737751393306057500,6.810057373046875,-0.7380523681640625,-0.606781005859375,0.1978759765625
1737751393316125700,6.820125732421875,-0.75311279296875,-0.6913909912109375,0.220001220703125
1737751393326193700,6.830193603515625,-0.7637786865234375,-0.808380126953125,0.2525634765625
1737751393336262400,6.840262451171875,-0.766387939453125,-0.8932647705078125,0.3015594482421875
1737751393346330400,6.850330322265625,-0.7797698974609375,-0.8709564208984375,0.377349853515625
1737751393356398300,6.8603984375,-0.817138671875,-0.8038787841796875,0.457000732421875
1737751393366465300,6.87046533203125,-0.85894775390625,-0.7773590087890625,0.4998931884765625
1737751393376533200,6.880533203125,-0.8763275146484375,-0.80462646484375,0.4993896484375
1737751393386601500,6.8906015625,-0.895172119140625,-0.868255615234375,0.482208251953125
1737751393396669400,6.90066943359375,-0.91754150390625,-0.915283203125,0.4678802490234375
1737751393406737400,6.9107373046875,-0.896636962890625,-0.9390411376953125,0.4675140380859375
1737751393416805400,6.920805419921875,-0.8578948974609375,-0.930023193359375,0.4662017822265625
1737751393426873300,6.930873291015625,-0.82000732421875,-0.8848724365234375,0.4675750732421875
1737751393436941300,6.94094140625,-0.799224853515625,-0.81829833984375,0.469940185546875
1737751393447009300,6.95100927734375,-0.7738037109375,-0.7570343017578125,0.479278564453125
1737751393457077200,6.9610771484375,-0.7415313720703125,-0.706085205078125,0.5018157958984375
1737751393467145500,6.9711455078125,-0.719390869140625,-0.680145263671875,0.523040771484375
1737751393477213400,6.98121337890625,-0.7017364501953125,-0.665924072265625,0.5314178466796875
1737751393487281400,6.991281494140625,-0.6878662109375,-0.661712646484375,0.5272216796875
1737751393497349400,7.001349365234375,-0.6732177734375,-0.6566314697265625,0.519775390625
1737751393507417300,7.011417236328125,-0.6513824462890625,-0.66339111328125,0.51397705078125
1737751393517485300,7.0214853515625,-0.6390533447265625,-0.6724090576171875,0.5006103515625
1737751393527553300,7.03155322265625,-0.631866455078125,-0.6769256591796875,0.48370361328125
1737751393537621200,7.041621337890625,-0.620513916015625,-0.6884765625,0.4772796630859375
1737751393547689500,7.051689453125,-0.61431884765625,-0.706634521484375,0.466033935546875
1737751393557757400,7.06175732421875,-0.6069793701171875,-0.7222442626953125,0.4566802978515625
1737751393567825400,7.071825439453125,-0.60107421875,-0.7292633056640625,0.4553985595703125
1737751393577892400,7.081892333984375,-0.605499267578125,-0.7328338623046875,0.4563446044921875
1737751393587960600,7.091960693359375,-0.6057891845703125,-0.740966796875,0.4521942138671875
1737751393598028500,7.102028564453125,-0.5989837646484375,-0.7536773681640625,0.4480438232421875
1737751393608096300,7.11209619140625,-0.5962371826171875,-0.772430419921875,0.465118408203125
1737751393618164200,7.122164306640625,-0.5992584228515625,-0.7908172607421875,0.468902587890625
1737751393628232400,7.132232421875,-0.5960693359375,-0.8071441650390625,0.4710845947265625
1737751393638300400,7.142300537109375,-0.5820159912109375,-0.82940673828125,0.482666015625
1737751393648368400,7.152368408203125,-0.560791015625,-0.860260009765625,0.4821624755859375
1737751393658436400,7.162436279296875,-0.540802001953125,-0.8835601806640625,0.4713134765625
1737751393668504600,7.172504638671875,-0.5095672607421875,-0.882904052734375,0.4665069580078125
1737751393678572500,7.182572509765625,-0.4734649658203125,-0.8359832763671875,0.4883270263671875
1737751393688640300,7.19264013671875,-0.4578094482421875,-0.7637176513671875,0.521240234375
1737751393698708200,7.202708251953125,-0.4530181884765625,-0.705169677734375,0.5437164306640625
1737751393708776400,7.2127763671875,-0.44915771484375,-0.6660614013671875,0.55535888671875
1737751393718844400,7.222844482421875,-0.46295166015625,-0.62896728515625,0.5566864013671875
1737751393728912400,7.232912353515625,-0.491119384765625,-0.58984375,0.554779052734375
1737751393738980400,7.24298046875,-0.5101470947265625,-0.543701171875,0.5395050048828125
1737751393749048600,7.253048583984375,-0.525726318359375,-0.480865478515625,0.514373779296875
1737751393759116300,7.2631162109375,-0.5420074462890625,-0.4273681640625,0.49566650390625
1737751393769184300,7.273184326171875,-0.5408935546875,-0.424896240234375,0.4732666015625
1737751393779252200,7.283252197265625,-0.5329742431640625,-0.4454345703125,0.4351806640625
1737751393789320400,7.293320556640625,-0.5334930419921875,-0.445465087890625,0.3962554931640625
1737751393799387400,7.303387451171875,-0.527130126953125,-0.4332733154296875,0.3953094482421875
1737751393809455400,7.313455322265625,-0.515106201171875,-0.4376220703125,0.4121856689453125
1737751393819523300,7.3235234375,-0.5062408447265625,-0.4244384765625,0.4336395263671875
1737751393829591300,7.33359130859375,-0.5087432861328125,-0.3819427490234375,0.4652862548828125
1737751393839659500,7.343659423828125,-0.4980926513671875,-0.33001708984375,0.523681640625
1737751393849727500,7.3537275390625,-0.4629058837890625,-0.298370361328125,0.5959625244140625
1737751393859795500,7.36379541015625,-0.429290771484375,-0.3041229248046875,0.6808319091796875
1737751393869863200,7.37386328125,-0.4060821533203125,-0.32293701171875,0.75201416015625
1737751393879931400,7.383931396484375,-0.403106689453125,-0.319793701171875,0.79901123046875
1737751393889999400,7.393999267578125,-0.40667724609375,-0.3084564208984375,0.8321380615234375
1737751393900067300,7.4040673828125,-0.417327880859375,-0.306243896484375,0.8365020751953125
1737751393910135300,7.41413525390625,-0.434967041015625,-0.326141357421875,0.80804443359375
1737751393920203500,7.42420361328125,-0.4485931396484375,-0.3175048828125,0.78076171875
1737751393930271500,7.434271484375,-0.448455810546875,-0.3270416259765625,0.7702178955078125
1737751393940339200,7.444339111328125,-0.4464569091796875,-0.3641815185546875,0.7879791259765625
1737751393950407200,7.4544072265625,-0.4452667236328125,-0.3881683349609375,0.8134002685546875
1737751393960475400,7.464475341796875,-0.4368133544921875,-0.4064178466796875,0.838958740234375
1737751393970543400,7.47454345703125,-0.4146728515625,-0.4222412109375,0.8700103759765625
1737751393980611300,7.484611328125,-0.403656005859375,-0.43609619140625,0.8937835693359375
1737751393990679300,7.49467919921875,-0.4090423583984375,-0.454559326171875,0.9098663330078125
1737751394000747500,7.50474755859375,-0.40740966796875,-0.4616546630859375,0.9322662353515625
1737751394010814500,7.514814453125,-0.412445068359375,-0.4535675048828125,0.9669647216796875
1737751394020882400,7.52488232421875,-0.4318084716796875,-0.43157958984375,0.990509033203125
1737751394030950400,7.534950439453125,-0.443572998046875,-0.4167327880859375,0.9835968017578125
1737751394041018400,7.545018310546875,-0.4386138916015625,-0.4433746337890625,0.958465576171875
1737751394051086300,7.55508642578125,-0.43463134765625,-0.474365234375,0.9429779052734375
1737751394061154300,7.565154296875,-0.4458770751953125,-0.48724365234375,0.9332122802734375
1737751394071222300,7.57522216796875,-0.466705322265625,-0.494171142578125,0.9148101806640625
1737751394081290500,7.58529052734375,-0.4897918701171875,-0.5049591064453125,0.908416748046875
1737751394091358500,7.5953583984375,-0.5037384033203125,-0.5337982177734375,0.9129180908203125
1737751394101426400,7.605426513671875,-0.523406982421875,-0.54815673828125,0.914337158203125
1737751394111494400,7.615494384765625,-0.53594970703125,-0.5363311767578125,0.9217071533203125
1737751394121562400,7.625562255859375,-0.5202178955078125,-0.54095458984375,0.947540283203125
1737751394131630300,7.63563037109375,-0.50830078125,-0.57073974609375,0.9772491455078125
1737751394141698300,7.6456982421875,-0.521636962890625,-0.59344482421875,0.9849090576171875
1737751394151766300,7.655766357421875,-0.529632568359375,-0.6320648193359375,0.981597900390625
1737751394161834500,7.66583447265625,-0.539947509765625,-0.672760009765625,0.973907470703125
1737751394171902500,7.67590234375,-0.5615386962890625,-0.6735382080078125,0.9456024169921875
1737751394181970400,7.685970458984375,-0.5824737548828125,-0.637939453125,0.9174957275390625
1737751394192038400,7.696038330078125,-0.5904998779296875,-0.6104278564453125,0.89239501953125
1737751394202106400,7.7061064453125,-0.585968017578125,-0.603851318359375,0.8619232177734375
1737751394212174300,7.71617431640625,-0.568359375,-0.5881500244140625,0.82318115234375
1737751394222242300,7.7262421875,-0.53057861328125,-0.580322265625,0.7969512939453125
1737751394232309200,7.736309326171875,-0.4873046875,-0.600250244140625,0.7829437255859375
1737751394242377200,7.746377197265625,-0.4790191650390625,-0.6104278564453125,0.78399658203125
1737751394252445400,7.756445556640625,-0.4854888916015625,-0.618438720703125,0.7873992919921875
1737751394262513400,7.766513427734375,-0.503631591796875,-0.6310577392578125,0.767578125
1737751394272581400,7.776581298828125,-0.5364532470703125,-0.644927978515625,0.7349853515625
1737751394282649300,7.7866494140625,-0.559112548828125,-0.6526031494140625,0.7149658203125
1737751394292717600,7.796717529296875,-0.55718994140625,-0.6387939453125,0.711029052734375
1737751394302785300,7.806785400390625,-0.5394744873046875,-0.6232452392578125,0.7066802978515625
1737751394312853200,7.816853271484375,-0.5129241943359375,-0.6154327392578125,0.6966400146484375
1737751394322921200,7.826921142578125,-0.476318359375,-0.6223602294921875,0.699981689453125
1737751394332989400,7.836989501953125,-0.4455108642578125,-0.6448974609375,0.708465576171875
1737751394343057000,7.847056884765625,-0.4202117919921875,-0.662811279296875,0.707183837890625
1737751394353124900,7.857124755859375,-0.40673828125,-0.669677734375,0.699981689453125
1737751394363192800,7.86719287109375,-0.4106903076171875,-0.6667938232421875,0.6906280517578125
1737751394373261000,7.877260986328125,-0.422088623046875,-0.6557159423828125,0.69793701171875
1737751394383329000,7.8873291015625,-0.437591552734375,-0.640350341796875,0.7095184326171875
1737751394393396700,7.897396728515625,-0.4509429931640625,-0.6271820068359375,0.7203216552734375
1737751394403464700,7.907464599609375,-0.465972900390625,-0.624847412109375,0.726043701171875
1737751394413533000,7.917532958984375,-0.4694061279296875,-0.639251708984375,0.7188720703125
1737751394423601000,7.927600830078125,-0.4721527099609375,-0.6529083251953125,0.6831512451171875
1737751394433668900,7.9376689453125,-0.490203857421875,-0.655426025390625,0.621063232421875
1737751394443736800,7.94773681640625,-0.504638671875,-0.653839111328125,0.5431976318359375
1737751394453803800,7.9578037109375,-0.5095367431640625,-0.636444091796875,0.4592132568359375
1737751394463872000,7.9678720703125,-0.498931884765625,-0.609405517578125,0.4000244140625
1737751394473940000,7.97793994140625,-0.502777099609375,-0.581695556640625,0.365264892578125
1737751394484008000,7.988008056640625,-0.532257080078125,-0.5761566162109375,0.340301513671875
1737751394494075600,7.99807568359375,-0.5579681396484375,-0.59368896484375,0.328155517578125
1737751394504144000,8.008143798828126,-0.5802764892578125,-0.6076507568359375,0.3400115966796875
1737751394514211800,8.0182119140625,-0.6033477783203125,-0.609222412109375,0.367218017578125
1737751394524279800,8.02827978515625,-0.629150390625,-0.597442626953125,0.3916168212890625
1737751394534347800,8.03834765625,-0.659332275390625,-0.5662689208984375,0.4059295654296875
1737751394544416000,8.048416015625,-0.686431884765625,-0.5236358642578125,0.4049530029296875
1737751394554484000,8.05848388671875,-0.704620361328125,-0.4838714599609375,0.395477294921875
1737751394564552000,8.068552001953124,-0.70654296875,-0.4529266357421875,0.375152587890625
1737751394574619600,8.07861962890625,-0.699554443359375,-0.43109130859375,0.3449554443359375
1737751394584687900,8.08868798828125,-0.6873779296875,-0.4268646240234375,0.307861328125
1737751394594755800,8.098755859375,-0.6763916015625,-0.4500579833984375,0.2634429931640625
1737751394604823800,8.10882373046875,-0.6679229736328125,-0.4957122802734375,0.213531494140625
1737751394614891800,8.118891845703125,-0.651763916015625,-0.55029296875,0.1656646728515625
1737751394624960000,8.1289599609375,-0.6395111083984375,-0.5929107666015625,0.118408203125
1737751394635028000,8.139028076171876,-0.63037109375,-0.6156005859375,0.0651092529296875
1737751394645096000,8.149095947265625,-0.623046875,-0.61724853515625,0.0166168212890625
1737751394655163600,8.15916357421875,-0.6191253662109375,-0.600189208984375,-0.019775390625
1737751394665232000,8.16923193359375,-0.614410400390625,-0.5730133056640625,-0.0421600341796875
1737751394675299800,8.1792998046875,-0.61083984375,-0.552978515625,-0.053466796875
1737751394685366800,8.18936669921875,-0.6107330322265625,-0.55010986328125,-0.057708740234375
1737751394695434800,8.199434814453125,-0.6172332763671875,-0.5657806396484375,-0.0540618896484375
1737751394705503000,8.2095029296875,-0.63153076171875,-0.5923309326171875,-0.0446624755859375
1737751394715571000,8.219571044921874,-0.6474456787109375,-0.6159515380859375,-0.029083251953125
1737751394725639000,8.229638916015626,-0.6736297607421875,-0.62640380859375,-0.0096282958984375
1737751394735707000,8.239706787109375,-0.704742431640625,-0.62786865234375,0.01031494140625
1737751394745775000,8.249775146484374,-0.7219085693359375,-0.620330810546875,0.025909423828125
1737751394755842800,8.2598427734375,-0.7342529296875,-0.6151123046875,0.0374755859375
1737751394765910800,8.269910888671875,-0.740020751953125,-0.6203155517578125,0.042572021484375
1737751394775978800,8.279978759765624,-0.7402496337890625,-0.634033203125,0.0432586669921875
1737751394786047000,8.290046875,-0.738037109375,-0.65533447265625,0.0400848388671875
1737751394796115000,8.300114990234375,-0.731353759765625,-0.6763763427734375,0.032501220703125
1737751394806183000,8.310182861328125,-0.7237548828125,-0.6914520263671875,0.0254058837890625
1737751394816251000,8.3202509765625,-0.7171478271484375,-0.7065277099609375,0.013824462890625
1737751394826319000,8.330319091796875,-0.71002197265625,-0.7193756103515625,-0.008575439453125
1737751394836386800,8.34038671875,-0.713958740234375,-0.729339599609375,-0.0364227294921875
1737751394846454800,8.350454833984376,-0.7203216552734375,-0.754669189453125,-0.069580078125
1737751394856522800,8.360522705078125,-0.71685791015625,-0.8096923828125,-0.108856201171875
1737751394866591000,8.370591064453125,-0.7098236083984375,-0.8911590576171875,-0.15789794921875
1737751394876659000,8.380658935546874,-0.7049560546875,-0.9770355224609375,-0.2045440673828125
1737751394886727000,8.390726806640625,-0.7197113037109375,-1.0149993896484375,-0.21966552734375
1737751394896793900,8.4007939453125,-0.727935791015625,-0.9807281494140625,-0.1993408203125
1737751394906861800,8.41086181640625,-0.7293548583984375,-0.903656005859375,-0.1578216552734375
1737751394916930000,8.420929931640625,-0.724761962890625,-0.8328857421875,-0.1246185302734375
1737751394926998000,8.430998046875,-0.7108306884765625,-0.81243896484375,-0.1197967529296875
1737751394937065700,8.441065673828126,-0.6847991943359375,-0.834991455078125,-0.141448974609375
1737751394947133700,8.4511337890625,-0.666748046875,-0.8576507568359375,-0.1722869873046875
1737751394957202000,8.461201904296875,-0.630828857421875,-0.8608245849609375,-0.196868896484375
1737751394967270000,8.471269775390626,-0.531890869140625,-0.861663818359375,-0.2056732177734375
1737751394977337900,8.481337890625,-0.472198486328125,-0.845306396484375,-0.1970672607421875
1737751394987405800,8.49140576171875,-0.460693359375,-0.8000946044921875,-0.1971282958984375
1737751394997474000,8.50147412109375,-0.399749755859375,-0.7429351806640625,-0.203399658203125
1737751395007542000,8.5115419921875,-0.4229583740234375,-0.705322265625,-0.2014007568359375
1737751395017609700,8.521609619140625,-0.5277099609375,-0.7404327392578125,-0.1823272705078125
1737751395027677700,8.531677734375,-0.5824432373046875,-0.7897186279296875,-0.1444549560546875
1737751395037746000,8.541745849609375,-0.6075439453125,-0.7873382568359375,-0.133544921875
1737751395047814000,8.55181396484375,-0.61370849609375,-0.7736663818359375,-0.1832122802734375
1737751395057881900,8.5618818359375,-0.586334228515625,-0.77484130859375,-0.2719268798828125
1737751395067949800,8.57194970703125,-0.550384521484375,-0.7736968994140625,-0.3529815673828125
1737751395078018000,8.58201806640625,-0.489013671875,-0.7773590087890625,-0.4100799560546875
1737751395088086000,8.5920859375,-0.4229888916015625,-0.7527618408203125,-0.45733642578125
1737751395098153700,8.60215380859375,-0.356658935546875,-0.7082977294921875,-0.5041656494140625
1737751395108221700,8.6122216796875,-0.29803466796875,-0.6618804931640625,-0.5572662353515625
1737751395118290000,8.6222900390625,-0.277069091796875,-0.62628173828125,-0.6044921875
1737751395128356900,8.63235693359375,-0.2905426025390625,-0.62799072265625,-0.6331329345703125
1737751395138424800,8.6424248046875,-0.311248779296875,-0.6654815673828125,-0.6282806396484375
1737751395148492800,8.652492919921874,-0.3412628173828125,-0.700469970703125,-0.5794525146484375
1737751395158561000,8.66256103515625,-0.3883819580078125,-0.7340087890625,-0.5201873779296875
1737751395168629000,8.67262890625,-0.438385009765625,-0.772186279296875,-0.48968505859375
1737751395178697000,8.682697021484374,-0.48675537109375,-0.7949371337890625,-0.4793701171875
1737751395188765000,8.692764892578126,-0.5176849365234375,-0.8038787841796875,-0.4636077880859375
1737751395198833000,8.7028330078125,-0.5186920166015625,-0.80181884765625,-0.44757080078125
1737751395208900900,8.71290087890625,-0.555755615234375,-0.7776641845703125,-0.451934814453125
1737751395218968800,8.72296875,-0.587005615234375,-0.7649993896484375,-0.471466064453125
1737751395229036800,8.733036865234375,-0.5815277099609375,-0.744720458984375,-0.4930572509765625
1737751395239105000,8.74310498046875,-0.5614013671875,-0.716583251953125,-0.5135498046875
1737751395249173000,8.753173095703126,-0.4289703369140625,-0.6598358154296875,-0.551025390625
1737751395259241000,8.763240966796875,-0.301788330078125,-0.5618743896484375,-0.6326141357421875
1737751395269309000,8.773308837890625,-0.319976806640625,-0.525054931640625,-0.7367095947265625
1737751395279377000,8.783376953125,-0.370849609375,-0.54229736328125,-0.7755126953125
1737751395289444900,8.79344482421875,-0.4322509765625,-0.52972412109375,-0.6857147216796875
1737751395299512800,8.803512939453125,-0.4713897705078125,-0.5115814208984375,-0.5833740234375
1737751395309580800,8.813580810546876,-0.422607421875,-0.5001983642578125,-0.5632476806640625
1737751395319649000,8.82364892578125,-0.3500213623046875,-0.4498291015625,-0.5611572265625
1737751395329717000,8.833717041015625,-0.282745361328125,-0.3848876953125,-0.5557098388671875
1737751395339785200,8.84378515625,-0.25286865234375,-0.37420654296875,-0.54931640625
1737751395349853000,8.85385302734375,-0.2836151123046875,-0.4503936767578125,-0.5684051513671875
1737751395359921000,8.8639208984375,-0.3335113525390625,-0.5831298828125,-0.5947265625
1737751395369989000,8.873989013671874,-0.4085845947265625,-0.657012939453125,-0.5478363037109375
1737751395380057000,8.88405712890625,-0.4844818115234375,-0.6259765625,-0.4295654296875
1737751395390125000,8.894125,-0.5364532470703125,-0.56414794921875,-0.34466552734375
1737751395400193000,8.904193115234374,-0.5614776611328125,-0.5258331298828125,-0.3494110107421875
1737751395410261200,8.91426123046875,-0.57574462890625,-0.516571044921875,-0.4455718994140625
1737751395420328200,8.924328125,-0.5472259521484375,-0.5219879150390625,-0.559173583984375
1737751395430396200,8.934396240234374,-0.510040283203125,-0.5027618408203125,-0.6431884765625
1737751395440464100,8.944464111328125,-0.4940185546875,-0.47515869140625,-0.7172393798828125
1737751395450531800,8.95453173828125,-0.4510040283203125,-0.4337615966796875,-0.772552490234375
1737751395460600000,8.96460009765625,-0.402252197265625,-0.394256591796875,-0.80718994140625
1737751395470668000,8.97466796875,-0.4020843505859375,-0.3802490234375,-0.839447021484375
1737751395480736000,8.984736083984375,-0.3998870849609375,-0.3824005126953125,-0.8981170654296875
1737751395490804000,8.994803955078124,-0.3875579833984375,-0.392333984375,-0.942169189453125
1737751395500872200,9.0048720703125,-0.3820037841796875,-0.397796630859375,-0.957733154296875
1737751395510940200,9.014940185546875,-0.39288330078125,-0.44189453125,-0.9665985107421875
1737751395521008000,9.025008056640624,-0.4310455322265625,-0.5131378173828125,-0.956207275390625
1737751395531075800,9.035075927734376,-0.4766387939453125,-0.5657196044921875,-0.91033935546875
1737751395541144000,9.04514404296875,-0.5101776123046875,-0.5800933837890625,-0.8265228271484375
1737751395551212000,9.0552119140625,-0.499420166015625,-0.5676727294921875,-0.7372589111328125
1737751395561280000,9.065280029296876,-0.488861083984375,-0.5613555908203125,-0.6673583984375
1737751395571348000,9.075347900390625,-0.4682159423828125,-0.5736541748046875,-0.64178466796875
1737751395581416200,9.085416259765625,-0.4277191162109375,-0.5825347900390625,-0.642242431640625
1737751395591484200,9.095484130859376,-0.407470703125,-0.5736541748046875,-0.6465606689453125
1737751395601552100,9.10555224609375,-0.4057159423828125,-0.5482025146484375,-0.6475067138671875
1737751395611619800,9.115619873046874,-0.4113311767578125,-0.5227508544921875,-0.6457366943359375
1737751395621688000,9.12568798828125,-0.422821044921875,-0.5155181884765625,-0.648529052734375
1737751395631756000,9.135756103515625,-0.442138671875,-0.5310821533203125,-0.6532745361328125
1737751395641824000,9.145823974609375,-0.4419708251953125,-0.5455780029296875,-0.647857666015625
1737751395651892000,9.15589208984375,-0.4163970947265625,-0.5419464111328125,-0.630889892578125
1737751395661960200,9.165960205078125,-0.3911895751953125,-0.5411376953125,-0.6147308349609375
1737751395672028200,9.176028076171875,-0.373382568359375,-0.56915283203125,-0.609039306640625
1737751395682096000,9.18609619140625,-0.360992431640625,-0.612548828125,-0.61358642578125
1737751395692163800,9.196163818359375,-0.3842010498046875,-0.657379150390625,-0.627777099609375
1737751395702232000,9.206232177734375,-0.407806396484375,-0.7087249755859375,-0.6545867919921875
1737751395712300000,9.216300048828124,-0.370147705078125,-0.7518310546875,-0.6886444091796875
1737751395722368000,9.226367919921875,-0.307891845703125,-0.7667083740234375,-0.72772216796875
1737751395732436000,9.23643603515625,-0.2548828125,-0.7454833984375,-0.7716064453125
1737751395742504200,9.246504150390624,-0.2251739501953125,-0.71240234375,-0.8032073974609375
1737751395752572200,9.256572265625,-0.2103729248046875,-0.6916656494140625,-0.8173828125
1737751395762640000,9.266639892578125,-0.2130126953125,-0.68109130859375,-0.8136749267578125
1737751395772707800,9.276707763671874,-0.215240478515625,-0.669952392578125,-0.7917022705078125
1737751395782776000,9.286776123046875,-0.1932525634765625,-0.6596221923828125,-0.7589874267578125
1737751395792843000,9.296843017578125,-0.16802978515625,-0.653594970703125,-0.7386627197265625
1737751395802911000,9.306910888671876,-0.15155029296875,-0.6511993408203125,-0.736663818359375
1737751395812979000,9.31697900390625,-0.15283203125,-0.6635894775390625,-0.7417144775390625
1737751395823047000,9.327046875,-0.1566314697265625,-0.685546875,-0.733184814453125
1737751395833115100,9.337115234375,-0.1491546630859375,-0.702056884765625,-0.71588134765625
1737751395843183000,9.34718310546875,-0.148162841796875,-0.7113800048828125,-0.711212158203125
1737751395853251000,9.3572509765625,-0.1534881591796875,-0.7257843017578125,-0.7340240478515625
1737751395863319000,9.367319091796874,-0.1552734375,-0.738250732421875,-0.76470947265625
1737751395873387000,9.377386962890625,-0.146453857421875,-0.738128662109375,-0.783843994140625
1737751395883455000,9.387455078125,-0.1360321044921875,-0.7279815673828125,-0.785003662109375
1737751395893523000,9.39752294921875,-0.133697509765625,-0.72088623046875,-0.781402587890625
1737751395903591200,9.407591064453126,-0.1323699951171875,-0.7162017822265625,-0.778900146484375
1737751395913659100,9.4176591796875,-0.1306610107421875,-0.7049407958984375,-0.7694091796875
1737751395923727000,9.42772705078125,-0.1354522705078125,-0.69281005859375,-0.75189208984375
1737751395933795000,9.437795166015626,-0.157318115234375,-0.6753997802734375,-0.738616943359375
1737751395943863000,9.447863037109375,-0.1877899169921875,-0.66680908203125,-0.7444000244140625
1737751395953931000,9.457930908203124,-0.1967620849609375,-0.6663970947265625,-0.7593231201171875
1737751395963999000,9.4679990234375,-0.1832122802734375,-0.6540069580078125,-0.779296875
1737751395974067000,9.47806689453125,-0.1861724853515625,-0.6389617919921875,-0.80242919921875
1737751395984135200,9.48813525390625,-0.1897735595703125,-0.638916015625,-0.8238372802734375
1737751395994203100,9.498203125,-0.1829071044921875,-0.64849853515625,-0.8336639404296875
1737751396004271000,9.50827099609375,-0.1864471435546875,-0.64971923828125,-0.827972412109375
1737751396014339000,9.518339111328125,-0.2044677734375,-0.64801025390625,-0.827178955078125
1737751396024407000,9.528406982421876,-0.2274322509765625,-0.652374267578125,-0.8423309326171875
1737751396034475000,9.53847509765625,-0.2582550048828125,-0.66583251953125,-0.8571624755859375
1737751396044543000,9.54854296875,-0.25421142578125,-0.675445556640625,-0.8555908203125
1737751396054611000,9.55861083984375,-0.2656097412109375,-0.6733551025390625,-0.84881591796875
1737751396064679200,9.56867919921875,-0.2554931640625,-0.6576995849609375,-0.8529510498046875
1737751396074747100,9.5787470703125,-0.20245361328125,-0.639617919921875,-0.865570068359375
1737751396084815000,9.588815185546874,-0.141265869140625,-0.6299591064453125,-0.890716552734375
1737751396094883000,9.598883056640625,-0.0921478271484375,-0.6182403564453125,-0.90704345703125
1737751396104951000,9.608950927734375,-0.0583038330078125,-0.598480224609375,-0.8921661376953125
1737751396115019000,9.61901904296875,-0.0616455078125,-0.57513427734375,-0.8502197265625
1737751396125087000,9.6290869140625,-0.0858306884765625,-0.5922088623046875,-0.8342437744140625
1737751396135155000,9.639155029296875,-0.06689453125,-0.591278076171875,-0.8289947509765625
1737751396145223200,9.64922314453125,-0.0570831298828125,-0.565338134765625,-0.8078765869140625
1737751396155291100,9.659291015625,-0.068267822265625,-0.5626678466796875,-0.7986297607421875
1737751396165359000,9.669359130859375,-0.095703125,-0.588775634765625,-0.79449462890625
1737751396175427000,9.679427001953124,-0.1170196533203125,-0.6206817626953125,-0.779815673828125
1737751396185495000,9.6894951171875,-0.0906829833984375,-0.6269989013671875,-0.7625579833984375
1737751396195563000,9.69956298828125,-0.096405029296875,-0.615753173828125,-0.7650909423828125
1737751396205631000,9.709630859375,-0.096923828125,-0.60333251953125,-0.8041229248046875
1737751396215699000,9.719698974609376,-0.0808258056640625,-0.5771636962890625,-0.84661865234375
1737751396225767200,9.72976708984375,-0.0345458984375,-0.5579833984375,-0.862945556640625
1737751396235835100,9.739835205078125,-0.0025482177734375,-0.5377197265625,-0.8616485595703125
1737751396245903000,9.749903076171876,-0.0132904052734375,-0.5209197998046875,-0.8603057861328125
1737751396255971000,9.75997119140625,-0.043975830078125,-0.519683837890625,-0.86309814453125
1737751396266039000,9.7700390625,-0.062835693359375,-0.519378662109375,-0.857330322265625
1737751396276107000,9.78010693359375,-0.0540924072265625,-0.516082763671875,-0.852020263671875
1737751396286175000,9.790175048828125,-0.0316009521484375,-0.501312255859375,-0.83319091796875
1737751396296243000,9.800242919921875,-0.0720062255859375,-0.499664306640625,-0.8005218505859375
1737751396306311200,9.810311279296876,-0.0995330810546875,-0.5339813232421875,-0.7862701416015625
1737751396316379100,9.820379150390625,-0.1063690185546875,-0.5331268310546875,-0.7593231201171875
1737751396326447000,9.830447021484375,-0.20941162109375,-0.53436279296875,-0.7406005859375
1737751396336515000,9.84051513671875,-0.248260498046875,-0.5497589111328125,-0.73553466796875
1737751396346582000,9.85058203125,-0.2401123046875,-0.5258026123046875,-0.717620849609375
1737751396356650800,9.860650634765625,-0.2286529541015625,-0.4967041015625,-0.7209320068359375
1737751396366718700,9.87071875,-0.187255859375,-0.4737091064453125,-0.756378173828125
1737751396376785700,9.88078564453125,-0.138153076171875,-0.4505615234375,-0.8000640869140625
1737751396386854000,9.89085400390625,-0.1009521484375,-0.4349212646484375,-0.84521484375
1737751396396921900,9.900921875,-0.10003662109375,-0.425567626953125,-0.8826904296875
1737751396406989800,9.91098974609375,-0.13201904296875,-0.4311370849609375,-0.8993377685546875
1737751396417058000,9.92105810546875,-0.1810150146484375,-0.4439849853515625,-0.8976287841796875
1737751396427126000,9.9311259765625,-0.2317962646484375,-0.448455810546875,-0.8855438232421875
1737751396437194000,9.941194091796875,-0.281829833984375,-0.4557952880859375,-0.8743438720703125
1737751396447261700,9.95126171875,-0.3112335205078125,-0.470001220703125,-0.8719940185546875
1737751396457330000,9.961329833984376,-0.2963409423828125,-0.475494384765625,-0.8817291259765625
1737751396467398000,9.97139794921875,-0.2397003173828125,-0.4521484375,-0.90887451171875
1737751396477465900,9.9814658203125,-0.16705322265625,-0.4193572998046875,-0.95245361328125
1737751396487533800,9.991533935546874,-0.070709228515625,-0.390228271484375,-1.004302978515625
1737751396497602000,10.00160205078125,0.0016326904296875,-0.3592987060546875,-1.0534820556640625
1737751396507670000,10.011669921875,0.01043701171875,-0.3377685546875,-1.0860443115234375
1737751396517738000,10.021738037109374,-0.0244293212890625,-0.3303985595703125,-1.0818023681640625
1737751396527805700,10.0318056640625,-0.0566558837890625,-0.3290863037109375,-1.0283203125
1737751396537874000,10.0418740234375,-0.0727081298828125,-0.3326416015625,-0.950653076171875
1737751396547942000,10.05194189453125,-0.11322021484375,-0.3356170654296875,-0.877044677734375
1737751396558009900,10.062009765625,-0.1793670654296875,-0.357421875,-0.8232879638671875
1737751396568077800,10.072077880859375,-0.2170257568359375,-0.39935302734375,-0.7916259765625
1737751396578146000,10.08214599609375,-0.24566650390625,-0.43658447265625,-0.7860870361328125
1737751396588214000,10.092214111328126,-0.242706298828125,-0.453765869140625,-0.7995147705078125
1737751396598282000,10.102281982421875,-0.2177276611328125,-0.4432220458984375,-0.8266754150390625
1737751396608349700,10.112349609375,-0.1814422607421875,-0.4134368896484375,-0.8796844482421875
1737751396618418000,10.12241796875,-0.1081390380859375,-0.385955810546875,-0.944976806640625
1737751396628486000,10.13248583984375,-0.035430908203125,-0.357452392578125,-0.99005126953125
1737751396638553900,10.142553955078125,0.0150146484375,-0.3249053955078125,-0.9899139404296875
1737751396648621800,10.152621826171876,0.0356903076171875,-0.2969818115234375,-0.9615020751953125
1737751396658690000,10.16268994140625,0.021881103515625,-0.282379150390625,-0.9303741455078125
1737751396668758000,10.172758056640625,-0.0189056396484375,-0.2862701416015625,-0.90283203125
1737751396678825700,10.18282568359375,-0.06622314453125,-0.3026885986328125,-0.8799591064453125
1737751396688893700,10.192893798828125,-0.09271240234375,-0.3211517333984375,-0.87017822265625
1737751396698962000,10.2029619140625,-0.1088104248046875,-0.333343505859375,-0.86322021484375
1737751396709030000,10.21302978515625,-0.1170654296875,-0.3494873046875,-0.85955810546875
1737751396719097900,10.223097900390625,-0.13507080078125,-0.374114990234375,-0.8756866455078125
1737751396729165800,10.233165771484375,-0.1409149169921875,-0.399505615234375,-0.9057159423828125
1737751396739234000,10.243234130859374,-0.137603759765625,-0.3995513916015625,-0.92169189453125
1737751396749302000,10.253302001953125,-0.1368255615234375,-0.37493896484375,-0.9272613525390625
1737751396759369700,10.26336962890625,-0.12841796875,-0.345184326171875,-0.93829345703125
1737751396769437700,10.273437744140624,-0.1170501708984375,-0.323516845703125,-0.95428466796875
1737751396779506000,10.283505859375,-0.1048126220703125,-0.324493408203125,-0.970855712890625
1737751396789574000,10.293573974609375,-0.0906982421875,-0.3369903564453125,-0.9858245849609375
1737751396799641900,10.303641845703124,-0.0940399169921875,-0.3477020263671875,-1.003204345703125
1737751396809709800,10.313709716796875,-0.0813751220703125,-0.34912109375,-1.0113677978515625
1737751396819778000,10.323778076171875,-0.0716552734375,-0.3278350830078125,-1.00726318359375
1737751396829846000,10.333845947265624,-0.0725555419921875,-0.313995361328125,-1.0051727294921875
1737751396839913700,10.343913818359376,-0.064971923828125,-0.316986083984375,-0.9918670654296875
1737751396849981700,10.353981689453125,-0.0826873779296875,-0.3175201416015625,-0.9581756591796875
1737751396860050000,10.3640498046875,-0.1045074462890625,-0.3262176513671875,-0.938262939453125
1737751396870118000,10.374117919921876,-0.1011505126953125,-0.335906982421875,-0.9188690185546875
1737751396880185900,10.384185791015625,-0.1004791259765625,-0.3313140869140625,-0.879547119140625
1737751396890253800,10.39425390625,-0.106353759765625,-0.33349609375,-0.8495941162109375
1737751396900322000,10.404322021484376,-0.111419677734375,-0.3475494384765625,-0.8383026123046875
1737751396910390000,10.41439013671875,-0.108551025390625,-0.3582305908203125,-0.8329925537109375
1737751396920457700,10.424457763671874,-0.1071624755859375,-0.3542938232421875,-0.8317718505859375
1737751396930525700,10.434525634765626,-0.10809326171875,-0.3466644287109375,-0.8375396728515625
1737751396940594000,10.444593994140625,-0.116668701171875,-0.3426055908203125,-0.8470458984375
1737751396950662000,10.454661865234375,-0.1186065673828125,-0.3465728759765625,-0.858184814453125
1737751396960729900,10.464729736328126,-0.1020050048828125,-0.3533935546875,-0.869110107421875
1737751396970797800,10.4747978515625,-0.087432861328125,-0.35443115234375,-0.8839874267578125
1737751396980866000,10.484865966796875,-0.082061767578125,-0.3451690673828125,-0.902099609375
1737751396990934000,10.49493408203125,-0.08734130859375,-0.3360443115234375,-0.9191741943359375
1737751397001001700,10.505001708984375,-0.096221923828125,-0.3365325927734375,-0.931732177734375
1737751397011069700,10.515069580078125,-0.1046905517578125,-0.3502960205078125,-0.9324188232421875
1737751397021138000,10.525137939453124,-0.1282958984375,-0.3657989501953125,-0.91729736328125
1737751397031206000,10.535205810546875,-0.1553955078125,-0.3826141357421875,-0.8962860107421875
1737751397041273900,10.54527392578125,-0.176910400390625,-0.3984222412109375,-0.8790435791015625
1737751397051341800,10.555341796875,-0.1821136474609375,-0.4021148681640625,-0.8721923828125
1737751397061410000,10.56541015625,-0.1674041748046875,-0.3850250244140625,-0.876190185546875
1737751397071478000,10.57547802734375,-0.1536712646484375,-0.3596038818359375,-0.9029998779296875
1737751397081545700,10.585545654296874,-0.1339874267578125,-0.3496551513671875,-0.947784423828125
1737751397091613700,10.59561376953125,-0.118194580078125,-0.3559722900390625,-0.9770050048828125
1737751397101682000,10.605681884765625,-0.132843017578125,-0.375946044921875,-0.9728240966796875
1737751397111750000,10.61575,-0.154266357421875,-0.3996429443359375,-0.9440765380859375
1737751397121817900,10.62581787109375,-0.1852264404296875,-0.4132080078125,-0.9085540771484375
1737751397131885800,10.6358857421875,-0.2234344482421875,-0.41815185546875,-0.890045166015625
1737751397141954000,10.6459541015625,-0.2551116943359375,-0.42071533203125,-0.897735595703125
1737751397152021800,10.656021728515626,-0.2633056640625,-0.4263916015625,-0.9343414306640625
1737751397162089700,10.66608984375,-0.2318267822265625,-0.4339752197265625,-1.001220703125
1737751397172157700,10.67615771484375,-0.1696014404296875,-0.4319915771484375,-1.0715179443359375
1737751397182226000,10.686225830078126,-0.114410400390625,-0.4005279541015625,-1.098602294921875
1737751397192294000,10.6962939453125,-0.0970001220703125,-0.3636016845703125,-1.093719482421875
1737751397202361900,10.70636181640625,-0.132293701171875,-0.3569793701171875,-1.063232421875
1737751397212429800,10.716429931640626,-0.1887664794921875,-0.389617919921875,-0.9849700927734375
1737751397222498000,10.726498046875,-0.2190399169921875,-0.4275665283203125,-0.8731231689453125
1737751397232565800,10.736565673828125,-0.1490936279296875,-0.4297943115234375,-0.7742919921875
1737751397242633700,10.7466337890625,0.00164794921875,-0.3757171630859375,-0.7104949951171875
1737751397252701700,10.75670166015625,0.1753997802734375,-0.305084228515625,-0.6818084716796875
1737751397262770000,10.76677001953125,0.3560943603515625,-0.259490966796875,-0.6817474365234375
1737751397272838000,10.776837890625,0.40972900390625,-0.237335205078125,-0.713104248046875
1737751397282905900,10.78690576171875,0.275054931640625,-0.2567596435546875,-0.7520751953125
1737751397292973800,10.796973876953125,0.0753326416015625,-0.3298797607421875,-0.7208709716796875
1737751397303042000,10.8070419921875,-0.082672119140625,-0.42510986328125,-0.614288330078125
1737751397313109800,10.81710986328125,-0.1896514892578125,-0.4930267333984375,-0.5098419189453125
1737751397323177700,10.827177734375,-0.2505035400390625,-0.5057220458984375,-0.476318359375
1737751397333245700,10.83724560546875,-0.2446136474609375,-0.4867706298828125,-0.52862548828125
1737751397343314200,10.847314208984375,-0.1759033203125,-0.47027587890625,-0.6474151611328125
1737751397353382100,10.857382080078125,-0.090667724609375,-0.4731292724609375,-0.77032470703125
1737751397363450000,10.8674501953125,-0.0356903076171875,-0.472686767578125,-0.869384765625
1737751397373518300,10.877518310546876,-0.0011444091796875,-0.4564361572265625,-0.9341888427734375
1737751397383586000,10.8875859375,0.0288848876953125,-0.44451904296875,-0.9940032958984375
1737751397393654000,10.897654052734374,0.0044403076171875,-0.4503021240234375,-1.0662841796875
1737751397403722000,10.907721923828126,-0.040435791015625,-0.47027587890625,-1.1360321044921875
1737751397413790200,10.917790283203125,-0.0419464111328125,-0.4808502197265625,-1.1943817138671875
1737751397423858200,10.927858154296874,-0.0335235595703125,-0.466705322265625,-1.2257843017578125
1737751397433926100,10.937926025390626,-0.0379180908203125,-0.4510955810546875,-1.222808837890625
1737751397443994000,10.947994140625,-0.08367919921875,-0.4622802734375,-1.1890869140625
1737751397454062300,10.958062255859375,-0.1058197021484375,-0.492279052734375,-1.1293182373046875
1737751397464130000,10.968130126953126,-0.0998077392578125,-0.5060577392578125,-1.051727294921875
1737751397474198000,10.978197998046875,-0.0850372314453125,-0.5081939697265625,-0.988433837890625
1737751397484266000,10.988265869140625,-0.0978851318359375,-0.52923583984375,-0.9593048095703125
1737751397494334200,10.998334228515626,-0.12322998046875,-0.5584259033203125,-0.9421539306640625
1737751397504402200,11.008402099609375,-0.1363372802734375,-0.555694580078125,-0.902191162109375
1737751397514470100,11.01847021484375,-0.121978759765625,-0.5496368408203125,-0.8287353515625
1737751397524538000,11.0285380859375,-0.1136932373046875,-0.5624542236328125,-0.7855072021484375
1737751397534606300,11.0386064453125,-0.120880126953125,-0.5611419677734375,-0.7780303955078125
1737751397544674000,11.048674072265625,-0.1102447509765625,-0.5517425537109375,-0.7650909423828125
1737751397554742000,11.058741943359376,-0.076904296875,-0.555419921875,-0.77294921875
1737751397564810000,11.06881005859375,-0.05731201171875,-0.55029296875,-0.7929229736328125
1737751397574878200,11.078878173828125,-0.0645599365234375,-0.5390167236328125,-0.831878662109375
1737751397584946200,11.0889462890625,-0.0430145263671875,-0.5419769287109375,-0.9034423828125
1737751397595013000,11.09901318359375,0.0321502685546875,-0.532257080078125,-0.953094482421875
1737751397605081000,11.1090810546875,0.0884552001953125,-0.4977569580078125,-0.9435577392578125
1737751397615149000,11.119149169921876,0.1006317138671875,-0.4895172119140625,-0.9115142822265625
1737751397625218000,11.129218017578125,0.0615386962890625,-0.53057861328125,-0.86492919921875
1737751397635285200,11.13928515625,-0.002593994140625,-0.5794525146484375,-0.8080596923828125
1737751397645353000,11.14935302734375,-0.0521697998046875,-0.5931396484375,-0.7706298828125
1737751397655421000,11.1594208984375,-0.076873779296875,-0.5836181640625,-0.78118896484375
1737751397665489200,11.1694892578125,-0.086761474609375,-0.590179443359375,-0.8326263427734375
1737751397675557000,11.17955712890625,-0.0793914794921875,-0.607330322265625,-0.9032745361328125
1737751397685625000,11.189625,-0.0333099365234375,-0.5984039306640625,-0.96514892578125
1737751397695693000,11.199693115234375,0.020660400390625,-0.558868408203125,-0.99957275390625
1737751397705761300,11.20976123046875,0.0407867431640625,-0.5205078125,-1.0235443115234375
1737751397715829200,11.219829345703126,0.066558837890625,-0.49957275390625,-1.0359039306640625
1737751397725897000,11.22989697265625,0.1121368408203125,-0.4722137451171875,-1.017730712890625
1737751397735965000,11.23996484375,0.1353759765625,-0.4457550048828125,-0.9810791015625
1737751397746033200,11.250033203125,0.14556884765625,-0.455078125,-0.9512786865234375
1737751397756101000,11.26010107421875,0.177581787109375,-0.477081298828125,-0.921844482421875
1737751397766169000,11.270169189453124,0.1969451904296875,-0.47344970703125,-0.8939208984375
1737751397776237000,11.280237060546876,0.184722900390625,-0.45794677734375,-0.8855438232421875
1737751397786305300,11.29030517578125,0.1706085205078125,-0.4457550048828125,-0.875518798828125
1737751397796373200,11.300373291015624,0.1568756103515625,-0.4269866943359375,-0.848114013671875
1737751397806441000,11.31044091796875,0.1358795166015625,-0.41796875,-0.81268310546875
1737751397816509000,11.320509033203125,0.1146697998046875,-0.430389404296875,-0.7692108154296875
1737751397826577200,11.3305771484375,0.094940185546875,-0.448699951171875,-0.70330810546875
1737751397836645000,11.34064501953125,0.0840301513671875,-0.455718994140625,-0.64947509765625
1737751397846713000,11.350713134765625,0.0651702880859375,-0.4617767333984375,-0.643646240234375
1737751397856781000,11.360781005859375,0.0285491943359375,-0.488800048828125,-0.673736572265625
1737751397866849300,11.370849365234376,0.0241851806640625,-0.515777587890625,-0.7122344970703125
1737751397876917200,11.380917236328125,0.0418853759765625,-0.51806640625,-0.75
1737751397886985000,11.39098486328125,0.0448455810546875,-0.5044708251953125,-0.791107177734375
1737751397897053000,11.401052978515626,0.0446319580078125,-0.5029296875,-0.8271026611328125
1737751397907121200,11.41112109375,0.0455474853515625,-0.5132293701171875,-0.85955810546875
1737751397917189000,11.421189208984375,0.040496826171875,-0.5130157470703125,-0.8915863037109375
1737751397927257000,11.431257080078124,0.0273284912109375,-0.5021209716796875,-0.9254302978515625
1737751397937325300,11.4413251953125,0.00872802734375,-0.503936767578125,-0.9693450927734375
1737751397947393300,11.451393310546875,-0.0095977783203125,-0.5120697021484375,-0.9973602294921875
1737751397957461000,11.4614609375,-0.020843505859375,-0.5152740478515625,-0.99322509765625
1737751397967529000,11.471529052734375,-0.0273895263671875,-0.511627197265625,-0.9672088623046875
1737751397977597200,11.48159716796875,-0.0335235595703125,-0.5252838134765625,-0.9503631591796875
1737751397987665200,11.4916650390625,-0.03802490234375,-0.5384368896484375,-0.93572998046875
1737751397997733000,11.501733154296875,-0.040618896484375,-0.538909912109375,-0.9230499267578125
1737751398007801000,11.511801025390625,-0.02197265625,-0.5331268310546875,-0.9116973876953125
1737751398017869300,11.521869384765624,-0.005096435546875,-0.52642822265625,-0.8992156982421875
1737751398027937300,11.531937255859376,0.0035552978515625,-0.5338592529296875,-0.8914642333984375
1737751398038005000,11.5420048828125,0.0190582275390625,-0.5446319580078125,-0.8749542236328125
1737751398048073000,11.552072998046874,0.0367431640625,-0.544769287109375,-0.8516082763671875
1737751398058141200,11.56214111328125,0.052520751953125,-0.529388427734375,-0.8325958251953125
1737751398068209200,11.572209228515625,0.060211181640625,-0.5157012939453125,-0.822784423828125
1737751398078277000,11.582277099609374,0.0554046630859375,-0.5156097412109375,-0.8162078857421875
1737751398088345000,11.592344970703126,0.0468597412109375,-0.5212554931640625,-0.8104705810546875
1737751398098413300,11.602413330078125,0.048919677734375,-0.519500732421875,-0.8019256591796875
1737751398108481300,11.612481201171875,0.0616302490234375,-0.517852783203125,-0.80218505859375
1737751398118549000,11.622549072265626,0.0716552734375,-0.51751708984375,-0.814208984375
1737751398128617000,11.632616943359375,0.0820159912109375,-0.5181884765625,-0.834503173828125
1737751398138685200,11.642685302734375,0.0956573486328125,-0.5133514404296875,-0.8488616943359375
1737751398148753200,11.652753173828126,0.0985870361328125,-0.50872802734375,-0.85113525390625
1737751398158821000,11.662821044921875,0.0912322998046875,-0.5151824951171875,-0.8508453369140625
1737751398168889000,11.67288916015625,0.071868896484375,-0.52789306640625,-0.8503875732421875
1737751398178957300,11.682957275390624,0.0544281005859375,-0.53289794921875,-0.8504638671875
1737751398189025300,11.693025390625,0.0472259521484375,-0.523101806640625,-0.8557281494140625
1737751398199093000,11.703093017578125,0.0426025390625,-0.50799560546875,-0.8692169189453125
1737751398209161000,11.713160888671876,0.04364013671875,-0.50732421875,-0.8881988525390625
1737751398219229200,11.723229248046875,0.046051025390625,-0.5142974853515625,-0.909637451171875
1737751398229297200,11.733297119140625,0.047149658203125,-0.51446533203125,-0.924468994140625
1737751398239365000,11.743365234375,0.055938720703125,-0.5058135986328125,-0.926513671875
1737751398249433000,11.75343310546875,0.06756591796875,-0.49725341796875,-0.9098968505859375
1737751398259501300,11.763501220703125,0.073486328125,-0.496002197265625,-0.890899658203125
1737751398269569300,11.7735693359375,0.0692596435546875,-0.502105712890625,-0.8724822998046875
1737751398279637000,11.783636962890625,0.060455322265625,-0.5088653564453125,-0.8560943603515625
1737751398289705000,11.793705078125,0.0546722412109375,-0.5114288330078125,-0.84716796875
1737751398299773200,11.803773193359374,0.049407958984375,-0.511474609375,-0.8507537841796875
1737751398309841200,11.813841064453126,0.0534210205078125,-0.50537109375,-0.8593902587890625
1737751398319909000,11.8239091796875,0.0618896484375,-0.4987335205078125,-0.8651580810546875
1737751398329977000,11.83397705078125,0.0694732666015625,-0.5006256103515625,-0.8683319091796875
1737751398340044800,11.844044921875,0.066802978515625,-0.50677490234375,-0.86590576171875
1737751398350112800,11.85411279296875,0.0575408935546875,-0.5156402587890625,-0.8610382080078125
1737751398360180700,11.8641806640625,0.05780029296875,-0.5196685791015625,-0.8567962646484375
1737751398370248400,11.87424853515625,0.0688934326171875,-0.5139312744140625,-0.859588623046875
1737751398380316700,11.884316650390625,0.069671630859375,-0.5025634765625,-0.8630523681640625
1737751398390384600,11.894384521484374,0.063262939453125,-0.5000152587890625,-0.8715972900390625
1737751398400452600,11.90445263671875,0.0601959228515625,-0.5013580322265625,-0.87725830078125
1737751398410520600,11.9145205078125,0.06024169921875,-0.5016937255859375,-0.876983642578125
1737751398420587500,11.92458740234375,0.063873291015625,-0.50335693359375,-0.8800048828125
1737751398430656800,11.93465673828125,0.0665740966796875,-0.503143310546875,-0.8929290771484375
1737751398440724700,11.944724853515625,0.0612335205078125,-0.5003204345703125,-0.9054718017578125
1737751398450791700,11.954791748046874,0.0483856201171875,-0.5055694580078125,-0.9047698974609375
1737751398460859600,11.964859619140626,0.0313873291015625,-0.5181732177734375,-0.8927459716796875
1737751398470928600,11.9749287109375,0.015960693359375,-0.5261688232421875,-0.872314453125
1737751398480995600,11.98499560546875,0.0131988525390625,-0.5253448486328125,-0.8524322509765625
1737751398491063600,11.9950634765625,0.0261383056640625,-0.514923095703125,-0.83892822265625
1737751398501131500,12.005131591796875,0.0426483154296875,-0.502593994140625,-0.8434295654296875
1737751398511199700,12.01519970703125,0.039947509765625,-0.501861572265625,-0.864776611328125
1737751398521267700,12.025267822265626,0.0323638916015625,-0.5050811767578125,-0.8784942626953125
1737751398531335700,12.035335693359375,0.03759765625,-0.499542236328125,-0.87548828125
1737751398541403600,12.045403564453125,0.037506103515625,-0.49249267578125,-0.8723297119140625
1737751398551471600,12.0554716796875,0.0162506103515625,-0.4920654296875,-0.8709869384765625
1737751398561539600,12.06553955078125,-0.0088653564453125,-0.5048370361328125,-0.8668365478515625
1737751398571607600,12.075607666015625,-0.0400238037109375,-0.5280609130859375,-0.853851318359375
1737751398581675500,12.085675537109376,-0.06634521484375,-0.547210693359375,-0.825439453125
1737751398591743700,12.09574365234375,-0.0851593017578125,-0.547576904296875,-0.7989959716796875
1737751398601811700,12.105811767578125,-0.09918212890625,-0.548004150390625,-0.790130615234375
1737751398611879700,12.115879638671874,-0.10333251953125,-0.5585479736328125,-0.8003082275390625
1737751398621947600,12.12594775390625,-0.105987548828125,-0.5816192626953125,-0.8314056396484375
1737751398632015600,12.136015625,-0.0925750732421875,-0.6069793701171875,-0.8755340576171875
1737751398642083600,12.14608349609375,-0.068511962890625,-0.6115264892578125,-0.917694091796875
1737751398652151600,12.156151611328125,-0.057464599609375,-0.609527587890625,-0.9413604736328125
1737751398662219500,12.166219482421875,-0.04400634765625,-0.5961761474609375,-0.9255523681640625
1737751398672287700,12.176287841796874,-0.0282440185546875,-0.5820770263671875,-0.892333984375
1737751398682355700,12.186355712890625,-0.0341644287109375,-0.5774688720703125,-0.8814697265625
1737751398692423700,12.196423583984375,-0.04962158203125,-0.5827484130859375,-0.8985748291015625
1737751398702491600,12.20649169921875,-0.0440216064453125,-0.577606201171875,-0.92474365234375
1737751398712559600,12.2165595703125,-0.0185699462890625,-0.56878662109375,-0.9605255126953125
1737751398722627600,12.226627685546875,0.004150390625,-0.55413818359375,-1.0058441162109375
1737751398732695600,12.236695556640624,0.00982666015625,-0.5405426025390625,-1.042449951171875
1737751398742763500,12.246763427734376,0.03411865234375,-0.5309600830078125,-1.0417022705078125
1737751398752831700,12.256831787109375,0.081451416015625,-0.5127410888671875,-0.9984588623046875
1737751398762899700,12.266899658203124,0.141876220703125,-0.47662353515625,-0.9372406005859375
1737751398772967700,12.2769677734375,0.1696624755859375,-0.4317779541015625,-0.88848876953125
1737751398783035400,12.287035400390625,0.1588287353515625,-0.416412353515625,-0.868316650390625
1737751398793103600,12.297103515625,0.13836669921875,-0.428131103515625,-0.84539794921875
1737751398803171600,12.307171630859376,0.0973358154296875,-0.455322265625,-0.8053741455078125
1737751398813239600,12.317239501953125,0.05706787109375,-0.488128662109375,-0.7698974609375
1737751398823307500,12.3273076171875,0.0391387939453125,-0.5030670166015625,-0.740936279296875
1737751398833375700,12.337375732421876,0.0068359375,-0.49853515625,-0.7351531982421875
1737751398843443700,12.347443603515625,-0.0074310302734375,-0.472137451171875,-0.750640869140625
1737751398853511700,12.35751171875,-0.020416259765625,-0.455078125,-0.7584228515625
1737751398863579400,12.367579345703126,-0.036224365234375,-0.4608154296875,-0.768798828125
1737751398873647600,12.377647705078125,-0.0633087158203125,-0.4750823974609375,-0.7926025390625
1737751398883715600,12.387715576171875,-0.08465576171875,-0.4869232177734375,-0.839630126953125
1737751398893783600,12.397783447265626,-0.0977020263671875,-0.4827728271484375,-0.9049530029296875
1737751398903851500,12.4078515625,-0.0804595947265625,-0.4575958251953125,-0.9691925048828125
1737751398913919700,12.417919677734375,-0.0293121337890625,-0.43023681640625,-1.0162200927734375
1737751398923987700,12.42798779296875,0.014312744140625,-0.4061279296875,-1.0509490966796875
1737751398934055700,12.4380556640625,0.035675048828125,-0.397369384765625,-1.0885467529296875
1737751398944123400,12.448123291015625,0.0274200439453125,-0.40069580078125,-1.1253204345703125
1737751398954191600,12.458191650390624,0.007354736328125,-0.4106597900390625,-1.1393890380859375
1737751398964259600,12.468259521484375,0.0134735107421875,-0.4150238037109375,-1.121337890625
1737751398974327600,12.47832763671875,0.0017547607421875,-0.3952484130859375,-1.07489013671875
1737751398984395500,12.4883955078125,-0.039794921875,-0.3874969482421875,-1.03814697265625
1737751398994463700,12.498463623046876,-0.0673828125,-0.4035797119140625,-1.004058837890625
1737751399004531700,12.50853173828125,-0.1181640625,-0.4316864013671875,-0.9595794677734375
1737751399014599700,12.518599609375,-0.0726776123046875,-0.425048828125,-0.8984832763671875
1737751399024667600,12.528667724609376,-0.1099853515625,-0.41461181640625,-0.8500213623046875
1737751399034735600,12.538735595703125,-0.100341796875,-0.43304443359375,-0.830108642578125
1737751399044803600,12.548803466796874,-0.1507110595703125,-0.4391937255859375,-0.822906494140625
1737751399054871600,12.55887158203125,-0.1535186767578125,-0.4293212890625,-0.8119049072265625
1737751399064939800,12.568939697265625,-0.1452789306640625,-0.401641845703125,-0.800445556640625
1737751399075007700,12.5790078125,-0.1670989990234375,-0.3971405029296875,-0.80902099609375
1737751399085075700,12.58907568359375,-0.158172607421875,-0.4049072265625,-0.82379150390625
1737751399095143700,12.599143798828125,-0.180816650390625,-0.412567138671875,-0.840087890625
1737751399105211600,12.609211669921875,-0.3202362060546875,-0.4532623291015625,-0.8643646240234375
1737751399115279600,12.619279541015626,-0.37445068359375,-0.490966796875,-0.87554931640625
1737751399125346600,12.6293466796875,-0.500885009765625,-0.5035552978515625,-0.92889404296875
1737751399135414500,12.63941455078125,-0.592559814453125,-0.519500732421875,-1.0062255859375
1737751399145482500,12.649482421875,-0.3965606689453125,-0.51092529296875,-1.0083160400390625
1737751399155550700,12.65955078125,-0.032745361328125,-0.409912109375,-0.9897003173828125
1737751399165618700,12.66961865234375,0.1100006103515625,-0.32147216796875,-1.0924835205078125
1737751399175686700,12.679686767578126,0.139404296875,-0.3121795654296875,-1.259246826171875
1737751399185754600,12.689754638671875,0.1416015625,-0.3109283447265625,-1.3455963134765625
1737751399195822600,12.699822509765625,0.0984344482421875,-0.3016815185546875,-1.3260650634765625
1737751399205890600,12.709890625,0.0216522216796875,-0.3177947998046875,-1.278350830078125
1737751399215958500,12.71995849609375,-0.0551605224609375,-0.3480072021484375,-1.24957275390625
1737751399226026500,12.730026611328125,-0.0915069580078125,-0.3607025146484375,-1.2238616943359375
1737751399236094700,12.7400947265625,-0.083251953125,-0.344635009765625,-1.1890411376953125
1737751399246162700,12.75016259765625,-0.069366455078125,-0.32073974609375,-1.1546630859375
1737751399256230700,12.760230712890625,-0.0655364990234375,-0.300750732421875,-1.1326904296875
1737751399266298600,12.770298583984374,-0.05450439453125,-0.2665252685546875,-1.11907958984375
1737751399276366600,12.78036669921875,-0.05078125,-0.2194671630859375,-1.108184814453125
1737751399286434600,12.7904345703125,-0.05303955078125,-0.1822357177734375,-1.090301513671875
1737751399296502500,12.80050244140625,-0.058685302734375,-0.1566314697265625,-1.0669403076171875
1737751399306570500,12.810570556640625,-0.07232666015625,-0.143707275390625,-1.0572509765625
1737751399316638700,12.820638671875,-0.07708740234375,-0.1476287841796875,-1.0517730712890625
1737751399326706700,12.830706787109374,-0.080078125,-0.1517333984375,-1.03900146484375
1737751399336774700,12.840774658203125,-0.0797882080078125,-0.14080810546875,-1.019775390625
1737751399346843000,12.8508427734375,-0.044891357421875,-0.1116790771484375,-1.0089874267578125
1737751399356910800,12.860910888671874,-0.0140228271484375,-0.066162109375,-1.00146484375
1737751399366978800,12.870978759765626,-0.063201904296875,-0.0327606201171875,-0.9749603271484375
1737751399377046800,12.881046875,-0.1057281494140625,-0.0503387451171875,-0.92181396484375
1737751399387114800,12.89111474609375,-0.0200958251953125,-0.0473785400390625,-0.863739013671875
1737751399397183000,12.901182861328126,-0.23968505859375,0.009002685546875,-0.847686767578125
1737751399407251000,12.9112509765625,-0.87969970703125,-0.1171875,-0.6798858642578125
1737751399417319000,12.92131884765625,-0.2530670166015625,-0.237701416015625,-0.3341064453125
1737751399427387000,12.931386962890626,-0.038909912109375,-0.030792236328125,-0.3412628173828125
1737751399437454800,12.941454833984375,-0.263519287109375,0.1734161376953125,-0.7255859375
1737751399447522800,12.951522705078125,-0.0528564453125,0.1804656982421875,-1.10211181640625
1737751399457590800,12.9615908203125,0.2175140380859375,0.1563262939453125,-1.2182159423828125
1737751399467658800,12.97165869140625,0.319091796875,0.167694091796875,-1.1083831787109375
1737751399477727000,12.98172705078125,0.2931976318359375,0.150665283203125,-0.930999755859375
1737751399487795000,12.991794921875,0.2136383056640625,0.0880126953125,-0.78094482421875
1737751399497863000,13.00186279296875,0.14495849609375,0.04315185546875,-0.6978759765625
