time,seconds_elapsed,z,y,x
1737751386636025600,0.140025634765625,-0.054960720241069794,-0.037516750395298004,0.008809204213321209
1737751386646093600,0.150093505859375,-0.04602394998073578,-0.023610787466168404,0.014111025258898735
1737751386656161500,0.16016162109375,-0.04048750549554825,-0.02016039565205574,0.020235497504472733
1737751386666229800,0.170229736328125,-0.03786695376038551,-0.020012591034173965,0.02623453363776207
1737751386676297700,0.180297607421875,-0.03796416148543358,-0.03142556548118591,0.027577565982937813
1737751386686365700,0.19036572265625,-0.029568279162049294,-0.044438306242227554,0.023358052596449852
1737751386696433700,0.20043359375,-0.020608872175216675,-0.040230508893728256,0.01727219671010971
1737751386706501600,0.210501708984375,-0.01829112321138382,-0.026090722531080246,-0.00021731393644586205
1737751386716569600,0.220569580078125,-0.023140473291277885,-0.019753998145461082,0.0062584285624325275
1737751386726637600,0.230637451171875,-0.029351230710744858,-0.01611798256635666,0.015178154222667217
1737751386736705800,0.240705810546875,-0.025229988619685173,-0.004209392238408327,0.023138608783483505
1737751386746773800,0.250773681640625,-0.014798120595514774,-0.00461658975109458,0.024924524128437042
1737751386756841700,0.260841796875,-0.005499161314219236,-0.005566272884607315,0.019151590764522552
1737751386766909700,0.27090966796875,0.002302302746102214,-0.0022029669489711523,0.008727445267140865
1737751386776977700,0.280977783203125,0.005255482159554958,0.0007073355955071747,0.001118527608923614
1737751386787045600,0.291045654296875,0.005696235224604607,0.010040916502475739,-0.003483681008219719
1737751386797113600,0.301113525390625,0.0005243764026090503,0.029279325157403946,0.0007563377148471773
1737751386807181600,0.311181640625,-0.011589810252189636,0.04976382851600647,0.011562912724912167
1737751386817248500,0.32124853515625,-0.019830163568258286,0.07388727366924286,0.02793150022625923
1737751386827316700,0.331316650390625,-0.020230703055858612,0.09917984902858734,0.03491191193461418
1737751386837384700,0.341384765625,-0.012870791368186474,0.12619628012180328,0.02750725857913494
1737751386847452700,0.35145263671875,-0.013004748150706291,0.14315369725227356,0.02202381007373333
1737751386857520600,0.361520751953125,-0.014334464445710182,0.13770459592342377,0.014364025555551052
1737751386867588900,0.3715888671875,-0.011412976309657097,0.11707362532615662,0.008115717209875584
1737751386877656600,0.381656494140625,-0.0006487460341304541,0.0839335173368454,0.0018279937794432044
1737751386887724500,0.391724609375,0.0059993029572069645,0.0484844446182251,-0.0037345506716519594
1737751386897792500,0.40179248046875,0.011837217956781387,0.008637962862849236,-0.012328571639955044
1737751386907860700,0.41186083984375,0.005535114090889692,-0.03069772571325302,-0.017536383122205734
1737751386917928700,0.4219287109375,-0.0013693973887711763,-0.06643601506948471,-0.02749261073768139
1737751386927996700,0.43199658203125,-0.009131180122494698,-0.08554606139659882,-0.035477034747600555
1737751386938064600,0.442064697265625,-0.016340624541044235,-0.10193248838186264,-0.037512488663196564
1737751386948132900,0.4521328125,-0.027708860114216805,-0.10224008560180664,-0.028602084144949913
1737751386958200600,0.46220068359375,-0.03267033025622368,-0.0948476791381836,-0.02375832572579384
1737751386968268500,0.4722685546875,-0.03176805004477501,-0.0810631588101387,-0.020074907690286636
1737751386978336500,0.48233642578125,-0.027655063197016716,-0.0703015923500061,-0.02154443971812725
1737751386988404700,0.49240478515625,-0.02732083760201931,-0.06507327407598495,-0.012680108658969402
1737751386998472700,0.50247265625,-0.024698687717318535,-0.05943456292152405,-0.004581968765705824
1737751387008540700,0.512540771484375,-0.020188625901937485,-0.04932653531432152,-0.00029587719473056495
1737751387018608600,0.522608642578125,-0.020388362929224968,-0.04454536363482475,-0.0004791026876773685
1737751387028676900,0.5326767578125,-0.02094123512506485,-0.04333069548010826,-0.0027470507193356752
1737751387038744600,0.54274462890625,-0.016260994598269463,-0.03994102403521538,-0.003123888047412038
1737751387048812500,0.5528125,-0.01050350721925497,-0.030606644228100777,-0.009565009735524654
1737751387058880500,0.562880615234375,-0.008404670283198357,-0.030423685908317566,-0.013430055230855942
1737751387068948700,0.57294873046875,-0.004387291613966227,-0.028317391872406006,-0.01805410161614418
1737751387079016700,0.5830166015625,-0.00031904669594950974,-0.02214311994612217,-0.02166881039738655
1737751387089084700,0.593084716796875,0.007083475589752197,-0.0187209565192461,-0.01901576854288578
1737751387099152600,0.603152587890625,0.012088887393474579,-0.0160687156021595,-0.014552044682204723
1737751387109220900,0.613220947265625,0.01888500712811947,-0.013173858635127544,-0.007862716913223267
1737751387119288600,0.62328857421875,0.020655211061239243,-0.007134608458727598,0.002061286708340049
1737751387129356500,0.6333564453125,0.01871376670897007,-0.00577719509601593,0.007532751187682152
1737751387139424500,0.643424560546875,0.01775715872645378,-0.004241084214299917,0.0060182115994393826
1737751387149492700,0.65349267578125,0.016999756917357445,0.0024639565963298082,0.006091182120144367
1737751387159560700,0.663560791015625,0.016807742416858673,0.00205223192460835,0.0001853560097515583
1737751387169627600,0.673627685546875,0.009335178881883621,-0.0022778017446398735,-0.006917827297002077
1737751387179696600,0.683696533203125,0.00717615382745862,-0.008162588812410831,-0.007289072033017874
1737751387189763600,0.693763671875,0.011247328482568264,-0.011869442649185658,-0.012827115133404732
1737751387199831800,0.703831787109375,0.0070669641718268394,-0.009546101093292236,-0.01281379908323288
1737751387209899800,0.713899658203125,0.01429238636046648,-0.016568323597311974,-0.009514142759144306
1737751387219967500,0.723967529296875,0.013696104288101196,-0.010661965236067772,-0.00869202520698309
1737751387230035700,0.73403564453125,0.018276209011673927,-0.007849134504795074,-0.00692075677216053
1737751387240103700,0.744103759765625,0.020772390067577362,-0.004757737275213003,-0.011581555008888245
1737751387250171600,0.754171630859375,0.02310878038406372,-0.0002412823960185051,-0.013612481765449047
1737751387260239600,0.764239501953125,0.02556927502155304,0.01053067110478878,-0.015429023653268814
1737751387270307800,0.774307861328125,0.025684857740998268,0.01417494099587202,-0.012330702506005764
1737751387280375800,0.784375732421875,0.022667229175567627,0.010783937759697437,-0.010937602259218693
1737751387290443800,0.79444384765625,0.01986238732933998,0.004778243601322174,-0.015341938473284245
1737751387300511500,0.804511474609375,0.022278407588601112,-0.00364719913341105,-0.019715648144483566
1737751387310579700,0.814579833984375,0.021708490327000618,-0.0006146575906313956,-0.022765234112739563
1737751387320647700,0.824647705078125,0.022892266511917114,0.007752461824566126,-0.01679735630750656
1737751387330715000,0.83471484375,0.01830470561981201,0.011200723238289356,-0.017682058736681938
1737751387340782800,0.844782958984375,0.02154151163995266,0.014666294679045677,-0.013680125586688519
1737751387350851000,0.85485107421875,0.02268054522573948,0.022183066233992577,-0.014125938527286053
1737751387360919000,0.8649189453125,0.02040034718811512,0.032105471938848495,-0.015845809131860733
1737751387370987000,0.874987060546875,0.019588882103562355,0.03790849819779396,-0.02238413505256176
1737751387381055000,0.885054931640625,0.014848987571895123,0.0380464531481266,-0.025121331214904785
1737751387391123000,0.895123046875,0.0116776954382658,0.03081383928656578,-0.022307170554995537
1737751387401191000,0.90519091796875,0.017298562452197075,0.02359560690820217,-0.0237005352973938
1737751387411259000,0.9152587890625,0.020550016313791275,0.01224468182772398,-0.026757311075925827
1737751387421327000,0.9253271484375,0.018255170434713364,0.006999586243182421,-0.025468608364462852
1737751387431395000,0.93539501953125,0.020185163244605064,0.005899967160075903,-0.024713868275284767
1737751387441463000,0.945463134765625,0.027147997170686722,0.005004345905035734,-0.03212225064635277
1737751387451531000,0.955531005859375,0.02924177423119545,0.002600576728582382,-0.03676201030611992
1737751387461599200,0.96559912109375,0.027952805161476135,0.0018258632626384497,-0.03722992539405823
1737751387471667000,0.9756669921875,0.02960343286395073,0.002612028270959854,-0.03996898606419563
1737751387481735000,0.98573486328125,0.02852085791528225,0.003082342678681016,-0.03753752261400223
1737751387491803000,0.995802978515625,0.03359151631593704,-0.002968891989439726,-0.036132436245679855
1737751387501871000,1.00587109375,0.03313558176159859,-0.01338611263781786,-0.038366563618183136
1737751387511939000,1.01593896484375,0.035592615604400635,-0.01913268119096756,-0.045642051845788956
1737751387522007000,1.026007080078125,0.028844963759183884,-0.03007720783352852,-0.05113589018583298
1737751387532075000,1.036074951171875,0.03314144164323807,-0.03927390277385712,-0.06266631186008453
1737751387542143200,1.046143310546875,0.04366705194115639,-0.0459243468940258,-0.06966909021139145
1737751387552211000,1.0562109375,0.053105827420949936,-0.05085199698805809,-0.07563590258359909
1737751387562279000,1.06627880859375,0.06308309733867645,-0.05272792652249336,-0.08113959431648254
1737751387572345900,1.076345947265625,0.0741269588470459,-0.0641278550028801,-0.07986313849687576
1737751387582415000,1.0864150390625,0.08102934062480927,-0.07528650015592575,-0.08057233691215515
1737751387592482000,1.09648193359375,0.0957222655415535,-0.09569456428289413,-0.08080536872148514
1737751387602550000,1.106550048828125,0.1262442171573639,-0.11602567136287689,-0.07636374980211258
1737751387612618000,1.116617919921875,0.1752796769142151,-0.15463298559188843,-0.06476674228906631
1737751387622686000,1.12668603515625,0.23230434954166412,-0.22498837113380432,-0.058151718229055405
1737751387632754200,1.136754150390625,0.2806154191493988,-0.336266428232193,-0.05709417909383774
1737751387642822100,1.146822265625,0.3317486345767975,-0.4764224588871002,-0.05554608255624771
1737751387652889900,1.156889892578125,0.37681570649147034,-0.5917820930480957,-0.04086993634700775
1737751387662957800,1.166957763671875,0.42401304841041565,-0.6428460478782654,-0.003900465788319707
1737751387673026000,1.177026123046875,0.4656699597835541,-0.591319739818573,0.0480884313583374
1737751387683094000,1.187093994140625,0.48328331112861633,-0.46157482266426086,0.11087192595005035
1737751387693162000,1.197161865234375,0.4779548645019531,-0.28717583417892456,0.17418831586837769
1737751387703230000,1.20722998046875,0.4735736846923828,-0.1073235273361206,0.24408084154129028
1737751387713298200,1.217298095703125,0.45842403173446655,0.06816679984331131,0.31882405281066895
1737751387723366100,1.2273662109375,0.4358731806278229,0.22917912900447845,0.39016109704971313
1737751387733433900,1.237433837890625,0.41995787620544434,0.35881781578063965,0.4461897313594818
1737751387743501800,1.247501708984375,0.413787305355072,0.4477226436138153,0.4846492409706116
1737751387753570000,1.257570068359375,0.41878074407577515,0.4900895357131958,0.5058102011680603
1737751387763638000,1.267637939453125,0.4511661231517792,0.4764554798603058,0.5140318870544434
1737751387773706000,1.2777060546875,0.4674268364906311,0.43653205037117004,0.5214386582374573
1737751387783774000,1.28777392578125,0.4666595757007599,0.3587733507156372,0.5218368172645569
1737751387793842200,1.29784228515625,0.4716958999633789,0.23525352776050568,0.516979455947876
1737751387803910100,1.30791015625,0.4767093062400818,0.09982699155807495,0.4978809058666229
1737751387813977900,1.317977783203125,0.48676246404647827,-0.011259579099714756,0.4643876552581787
1737751387824045800,1.3280458984375,0.5244084000587463,-0.09179303795099258,0.44246023893356323
1737751387834114000,1.338114013671875,0.5657334327697754,-0.1312490999698639,0.4466986656188965
1737751387844182000,1.34818212890625,0.5688906311988831,-0.10822474211454391,0.4677424430847168
1737751387854250000,1.35825,0.5587714314460754,-0.026578081771731377,0.49060115218162537
1737751387864318000,1.36831787109375,0.55671626329422,0.06900916248559952,0.5068866610527039
1737751387874386200,1.37838623046875,0.5495989322662354,0.17217975854873657,0.5398904085159302
1737751387884454000,1.388453857421875,0.5192868709564209,0.27280622720718384,0.5661467909812927
1737751387894521900,1.39852197265625,0.47746190428733826,0.3620295822620392,0.5840333700180054
1737751387904589800,1.40858984375,0.46104803681373596,0.4241933524608612,0.5968767404556274
1737751387914658000,1.418657958984375,0.45808500051498413,0.4689922630786896,0.6039809584617615
1737751387924726000,1.42872607421875,0.4651072323322296,0.5002862811088562,0.6141291856765747
1737751387934794000,1.4387939453125,0.4643823206424713,0.4766794741153717,0.6131502389907837
1737751387944862000,1.448862060546875,0.45168304443359375,0.4054284691810608,0.5943440198898315
1737751387954930200,1.45893017578125,0.43993663787841797,0.307948499917984,0.5758465528488159
1737751387964998000,1.468997802734375,0.4384612441062927,0.20221781730651855,0.5545633435249329
1737751387975065900,1.47906591796875,0.4412551522254944,0.09882165491580963,0.5246187448501587
1737751387985133800,1.4891337890625,0.4499317407608032,0.0015994944842532277,0.4939793646335602
1737751387995202000,1.4992021484375,0.44936901330947876,-0.07201533764600754,0.4740336239337921
1737751388005270000,1.50927001953125,0.44652023911476135,-0.1185479536652565,0.4575696885585785
1737751388015338000,1.519337890625,0.4396306276321411,-0.1419190615415573,0.46031805872917175
1737751388025406000,1.529406005859375,0.43355461955070496,-0.14567171037197113,0.47527146339416504
1737751388035474200,1.53947412109375,0.4264937937259674,-0.13835415244102478,0.5054147243499756
1737751388045541000,1.549541015625,0.42649006843566895,-0.11237021535634995,0.5480197072029114
1737751388055609000,1.559609130859375,0.4282549321651459,-0.08538520336151123,0.5908505320549011
1737751388065676800,1.5696767578125,0.43912091851234436,-0.06831833720207214,0.6361897587776184
1737751388075745000,1.5797451171875,0.45082736015319824,-0.05332500487565994,0.6770082712173462
1737751388085813000,1.58981298828125,0.46799489855766296,-0.048351287841796875,0.7178521156311035
1737751388095881000,1.599880859375,0.49020832777023315,-0.05747154727578163,0.766749382019043
1737751388105949000,1.609948974609375,0.5145357847213745,-0.057047039270401,0.8108819723129272
1737751388116017200,1.62001708984375,0.541551411151886,-0.048052214086055756,0.8589062094688416
1737751388126085000,1.630085205078125,0.5749490261077881,-0.04429955407977104,0.9037623405456543
1737751388136153000,1.640153076171875,0.607296884059906,-0.03299789875745773,0.9529842138290405
1737751388146220800,1.650220703125,0.6389415860176086,-0.017363810911774635,1.0069425106048584
1737751388156289000,1.6602890625,0.6681413054466248,-0.004376106429845095,1.0515592098236084
1737751388166357000,1.67035693359375,0.7069640755653381,0.013708354905247688,1.093251347541809
1737751388176425000,1.680425048828125,0.7426056861877441,0.03612231835722923,1.1247847080230713
1737751388186493000,1.690492919921875,0.7811325788497925,0.07564176619052887,1.1476045846939087
1737751388196561200,1.70056103515625,0.807849645614624,0.12650761008262634,1.1836419105529785
1737751388206629000,1.710629150390625,0.8313363790512085,0.1945420503616333,1.2079137563705444
1737751388216697000,1.720697021484375,0.8610566854476929,0.2866349518299103,1.2082953453063965
1737751388226764800,1.730764892578125,0.9020009636878967,0.39358246326446533,1.2062321901321411
1737751388236833000,1.7408330078125,0.9498576521873474,0.5152841210365295,1.2242066860198975
1737751388246901000,1.75090087890625,0.981343150138855,0.647803783416748,1.2395776510238647
1737751388256969000,1.760968994140625,0.9796800017356873,0.7923940420150757,1.2513920068740845
1737751388267037000,1.771036865234375,0.9723334312438965,0.9281438589096069,1.2880789041519165
1737751388277105200,1.781105224609375,0.9509857892990112,1.042988896369934,1.322811245918274
1737751388287173000,1.791173095703125,0.9106048345565796,1.122406244277954,1.3372865915298462
1737751388297241000,1.801240966796875,0.875460684299469,1.152889609336853,1.3194152116775513
1737751388307308800,1.811308837890625,0.8370046019554138,1.1379444599151611,1.2710676193237305
1737751388317377000,1.821376953125,0.7936254739761353,1.0820785760879517,1.2058753967285156
1737751388327444700,1.83144482421875,0.7475737929344177,0.984029233455658,1.1115241050720215
1737751388337513000,1.841512939453125,0.7021610736846924,0.8585083484649658,0.9996817111968994
1737751388347581000,1.851580810546875,0.6576146483421326,0.7141093015670776,0.8764718770980835
1737751388357649000,1.86164892578125,0.6150200366973877,0.5787371397018433,0.7572794556617737
1737751388367716900,1.871716796875,0.5882688164710999,0.44056248664855957,0.6660645604133606
1737751388377785000,1.88178515625,0.5623797178268433,0.32912570238113403,0.5957192778587341
1737751388387852800,1.891852783203125,0.5220741033554077,0.2561204731464386,0.531010627746582
1737751388397920800,1.901920654296875,0.4758613407611847,0.20624318718910217,0.4768512547016144
1737751388407988700,1.91198876953125,0.41799938678741455,0.17207056283950806,0.431378036737442
1737751388418057000,1.922056884765625,0.316275417804718,0.14417661726474762,0.3878396153450012
1737751388428125000,1.932125,0.1634214222431183,0.11762649565935135,0.3327915370464325
1737751388438193000,1.94219287109375,0.032362200319767,0.12257251888513565,0.3624820411205292
1737751388448260900,1.9522607421875,-0.011551993899047375,0.13066160678863525,0.4062556326389313
1737751388458329000,1.9623291015625,0.01954467222094536,0.11102105677127838,0.39027348160743713
1737751388468396800,1.972396728515625,0.03358272835612297,0.125411719083786,0.3438199460506439
1737751388478464800,1.98246484375,0.026495790109038353,0.13448430597782135,0.32646146416664124
1737751388488531700,1.99253173828125,-0.1309436410665512,-0.25202158093452454,0.14823020994663239
1737751388498601000,2.00260107421875,-0.2401561439037323,-0.68359375,0.0662410706281662
1737751388508668000,2.01266796875,-0.20701630413532257,-1.1073373556137085,-0.01599787548184395
1737751388518736000,2.02273583984375,-0.026007898151874542,-1.4923100471496582,-0.17247536778450012
1737751388528803800,2.032803955078125,0.06987228989601135,-1.817188024520874,-0.28427645564079285
1737751388538871800,2.042871826171875,-0.02834109403192997,-2.074080467224121,-0.41561052203178406
1737751388548940000,2.05293994140625,-0.08882547914981842,-2.221550703048706,-0.43529582023620605
1737751388559008000,2.063008056640625,-0.05131698399782181,-2.1896848678588867,-0.3576241731643677
1737751388569075700,2.07307568359375,-0.12832307815551758,-1.8849190473556519,-0.2445322424173355
1737751388579143700,2.083143798828125,-0.2811587154865265,-1.3871090412139893,-0.08906755596399307
1737751388589212000,2.0932119140625,-0.3758774995803833,-0.8128708004951477,0.06283089518547058
1737751388599279900,2.10327978515625,-0.35717490315437317,-0.16026955842971802,0.21521005034446716
1737751388609347800,2.113347900390625,-0.4132016897201538,0.49394741654396057,0.3335345685482025
1737751388619415800,2.123415771484375,-0.4730096161365509,1.0726370811462402,0.44272682070732117
1737751388629484000,2.133484130859375,-0.41581159830093384,1.5713551044464111,0.6054939031600952
1737751388639552000,2.143552001953125,-0.2678743302822113,1.8832758665084839,0.6576487421989441
1737751388649619700,2.15361962890625,-0.13496367633342743,2.032827138900757,0.6360177397727966
1737751388659687700,2.163687744140625,0.22186821699142456,2.161715507507324,0.6424492597579956
1737751388669756000,2.173755859375,0.418453186750412,2.307677984237671,0.6641154289245605
1737751388679824000,2.183823974609375,0.3989274203777313,2.3853843212127686,0.6960059404373169
1737751388689891800,2.193891845703125,0.16289198398590088,2.2730894088745117,0.7081843018531799
1737751388699959800,2.203959716796875,-0.19145597517490387,1.8870621919631958,0.6516496539115906
1737751388710028000,2.214028076171875,-0.3552513122558594,1.3880670070648193,0.63471919298172
1737751388720096000,2.224095947265625,-0.18135008215904236,0.8933243751525879,0.570166289806366
1737751388730163700,2.234163818359375,0.12178049981594086,0.538936197757721,0.4378117024898529
1737751388740232000,2.24423193359375,0.34839925169944763,0.3048778772354126,0.30898526310920715
1737751388750300000,2.2542998046875,0.4332353174686432,0.10833632946014404,0.23520639538764954
1737751388760367900,2.264367919921875,0.35059797763824463,-0.10841808468103409,0.19557562470436096
1737751388770435800,2.274435791015625,0.12990979850292206,-0.3903467059135437,0.157297745347023
1737751388780504000,2.284504150390625,-0.026513898745179176,-0.7092440128326416,0.13900049030780792
1737751388790572000,2.294572021484375,-0.04085422307252884,-0.9622030258178711,0.12043160200119019
1737751388800639700,2.3046396484375,0.1840321570634842,-1.0188902616500854,0.13005439937114716
1737751388810707700,2.314707763671875,0.4369400441646576,-0.9035330414772034,0.09265749901533127
1737751388820776000,2.32477587890625,0.4203336238861084,-0.6908870935440063,0.05793600529432297
1737751388830844000,2.334843994140625,0.2504207491874695,-0.46895575523376465,0.11638040840625763
1737751388840912000,2.344911865234375,0.13778209686279297,-0.27762097120285034,0.18193624913692474
1737751388850979800,2.354979736328125,0.051907673478126526,-0.04376452416181564,0.2206607311964035
1737751388861048000,2.365048095703125,0.017314275726675987,0.1583869755268097,0.1858430951833725
1737751388871116000,2.375115966796875,-0.06609299778938293,0.2644124925136566,0.10661033540964127
1737751388881183700,2.385183837890625,-0.17750874161720276,0.2123628556728363,0.05523103103041649
1737751388891251700,2.395251708984375,-0.19075636565685272,0.15506255626678467,0.10087761282920837
1737751388901320000,2.40531982421875,-0.07642553001642227,0.2586051821708679,0.20285378396511078
1737751388911388000,2.415387939453125,0.0670541375875473,0.5140641331672668,0.2986559271812439
1737751388921455900,2.425455810546875,0.21402041614055634,0.8312013149261475,0.36477795243263245
1737751388931523800,2.43552392578125,0.40200549364089966,1.1371500492095947,0.4323463439941406
1737751388941592000,2.445592041015625,0.4940374195575714,1.429854154586792,0.5135767459869385
1737751388951660000,2.455659912109375,0.5230696201324463,1.6349151134490967,0.5345427393913269
1737751388961727700,2.465727783203125,0.5358453392982483,1.6961973905563354,0.45844241976737976
1737751388971795700,2.475795654296875,0.26634061336517334,1.6288201808929443,0.31328120827674866
1737751388981864000,2.485864013671875,0.11668720096349716,1.4318392276763916,0.2372138798236847
1737751388991932000,2.495931884765625,0.21407873928546906,1.2431342601776123,0.19173960387706757
1737751389002000000,2.505999755859375,0.3389285206794739,1.175290822982788,0.07455439865589142
1737751389012067800,2.51606787109375,0.44818949699401855,1.1920239925384521,-0.07228990644216537
1737751389022136000,2.526135986328125,0.5707769393920898,1.2250274419784546,-0.2150374799966812
1737751389032204000,2.5362041015625,0.6354307532310486,1.2501109838485718,-0.3404960632324219
1737751389042271700,2.546271728515625,0.5926982164382935,1.2632791996002197,-0.4524979591369629
1737751389052339700,2.556339599609375,0.366150826215744,1.3590446710586548,-0.4006741940975189
1737751389062408000,2.566407958984375,0.07187578827142715,1.469379186630249,-0.2690676748752594
1737751389072476000,2.576475830078125,-0.08256252110004425,1.3785333633422852,-0.26979953050613403
1737751389082543900,2.5865439453125,-0.1330382078886032,1.2585694789886475,-0.3319869935512543
1737751389092611800,2.59661181640625,-0.12100738286972046,1.2018874883651733,-0.4095132052898407
1737751389102680000,2.60668017578125,-0.0787946805357933,1.1853647232055664,-0.47880467772483826
1737751389112748000,2.616748046875,0.012119513005018234,1.1223266124725342,-0.5407146215438843
1737751389122815700,2.626815673828125,0.026505377143621445,0.9722180962562561,-0.6264985203742981
1737751389132883000,2.636883056640625,-0.03417261689901352,0.6581523418426514,-0.7494966387748718
1737751389142952000,2.646951904296875,-0.12564393877983093,0.15106408298015594,-0.8798950910568237
1737751389153019000,2.657018798828125,-0.18557065725326538,-0.41803693771362305,-1.0862668752670288
1737751389163086800,2.6670869140625,-0.1846659779548645,-0.8365684151649475,-1.1026978492736816
1737751389173154800,2.67715478515625,-0.10988841950893402,-0.9951474070549011,-0.9195871353149414
1737751389183222800,2.687222900390625,0.028549352660775185,-0.8287799954414368,-0.583167552947998
1737751389193291000,2.697291015625,0.15547561645507812,-0.48896196484565735,-0.47167566418647766
1737751389203359000,2.70735888671875,0.20677022635936737,0.11126021295785904,-0.2865481376647949
1737751389213427000,2.717427001953125,0.21665720641613007,0.839983344078064,-0.0662195011973381
1737751389223494700,2.72749462890625,0.17719927430152893,1.3955302238464355,0.10144805908203125
1737751389233563000,2.73756298828125,0.0698174312710762,1.7174246311187744,0.24477513134479523
1737751389243630800,2.747630859375,0.007725830189883709,1.8640425205230713,0.4256463646888733
1737751389253698800,2.75769873046875,-0.11354387551546097,1.8142741918563843,0.4979000687599182
1737751389263766800,2.767766845703125,-0.2543252110481262,1.6479078531265259,0.4874013662338257
1737751389273835000,2.7778349609375,-0.2909058630466461,1.3719066381454468,0.3554398715496063
1737751389283903000,2.787903076171875,-0.17691698670387268,1.2637351751327515,0.26570677757263184
1737751389293971000,2.797970947265625,-0.14585041999816895,1.2581756114959717,0.16372156143188477
1737751389304038700,2.80803857421875,-0.2619059085845947,1.249958872795105,0.10556184500455856
1737751389314107000,2.81810693359375,-0.5581149458885193,1.0274782180786133,-0.0059777311980724335
1737751389324174800,2.8281748046875,-0.8315030932426453,0.4628414213657379,-0.23060950636863708
1737751389334243300,2.838243408203125,-0.6471459865570068,-0.10860983282327652,-0.43105578422546387
1737751389344311300,2.848311279296875,-0.3678155541419983,-0.546334981918335,-0.7170289754867554
1737751389354379300,2.858379150390625,-0.2675235867500305,-1.0405012369155884,-1.0518375635147095
1737751389364447200,2.868447265625,-0.30651891231536865,-1.6576154232025146,-1.3919930458068848
1737751389374515200,2.87851513671875,-0.2797597348690033,-2.2094602584838867,-1.6258641481399536
1737751389384583200,2.888583251953125,-0.11779028177261353,-2.4615254402160645,-1.7389914989471436
1737751389394651100,2.898651123046875,0.06405647844076157,-2.3746471405029297,-1.8333173990249634
1737751389404719400,2.90871923828125,0.14875511825084686,-2.076223611831665,-1.8350801467895508
1737751389414787300,2.918787353515625,0.11092066019773483,-1.6143869161605835,-1.6592183113098145
1737751389424855300,2.928855224609375,-0.016412794589996338,-1.0933860540390015,-1.4629020690917969
1737751389434923300,2.93892333984375,-0.1592692881822586,-0.6037596464157104,-1.2759939432144165
1737751389444991200,2.9489912109375,-0.23156984150409698,-0.18312934041023254,-1.111871361732483
1737751389455059200,2.95905908203125,-0.21979467570781708,0.13556049764156342,-1.0155656337738037
1737751389465127200,2.969127197265625,-0.16533996164798737,0.3086917996406555,-0.9654776453971863
1737751389475195400,2.9791953125,-0.0961824581027031,0.32929906249046326,-0.9635055661201477
1737751389485263400,2.989263427734375,-0.043476104736328125,0.2130821794271469,-1.018109917640686
1737751389495331300,2.999331298828125,-0.00469568558037281,0.002082591876387596,-1.113149642944336
1737751389505399300,3.0093994140625,0.03474173694849014,-0.23427188396453857,-1.182259440422058
1737751389515467500,3.019467529296875,0.073623888194561,-0.4686950445175171,-1.2048065662384033
1737751389525535200,3.02953515625,0.10099319368600845,-0.6728782653808594,-1.187106728553772
1737751389535603200,3.039603271484375,0.12708738446235657,-0.8288263082504272,-1.131837010383606
1737751389545671200,3.049671142578125,0.1601654291152954,-0.9285398721694946,-1.0455522537231445
1737751389555739400,3.059739501953125,0.19130738079547882,-0.957426130771637,-0.9577251672744751
1737751389565807400,3.069807373046875,0.22372470796108246,-0.9076284766197205,-0.8461283445358276
1737751389575875300,3.079875244140625,0.24382171034812927,-0.7851741909980774,-0.709897518157959
1737751389585943300,3.089943359375,0.2524074912071228,-0.6049489974975586,-0.5371478796005249
1737751389596011500,3.100011474609375,0.25030651688575745,-0.3815377652645111,-0.33491355180740356
1737751389606079200,3.110079345703125,0.24792352318763733,-0.16426244378089905,-0.10520285367965698
1737751389616147200,3.120147216796875,0.24624626338481903,0.02003576047718525,0.10066908597946167
1737751389626215200,3.130215087890625,0.2326612025499344,0.17000581324100494,0.2648652195930481
1737751389636283400,3.140283447265625,0.20456139743328094,0.27945375442504883,0.38876107335090637
1737751389646351400,3.150351318359375,0.16840073466300964,0.3341023325920105,0.48636725544929504
1737751389656419300,3.16041943359375,0.13222648203372955,0.3390747308731079,0.5674996376037598
1737751389666487300,3.1704873046875,0.10980932414531708,0.29858162999153137,0.6358265280723572
1737751389676555500,3.180555419921875,0.1033325120806694,0.20559842884540558,0.683208167552948
1737751389686623200,3.190623291015625,0.10792966187000275,0.08371087908744812,0.7102533578872681
1737751389696691200,3.200691162109375,0.11409754306077957,-0.03952717036008835,0.7271090149879456
1737751389706759200,3.21075927734375,0.10633709281682968,-0.15767590701580048,0.6910855174064636
1737751389716827400,3.220827392578125,0.07199163734912872,-0.2707712948322296,0.6109091639518738
1737751389726895400,3.230895263671875,0.017302557826042175,-0.37923040986061096,0.5627126097679138
1737751389736963300,3.24096337890625,-0.033551037311553955,-0.44692716002464294,0.571295976638794
1737751389747031300,3.25103125,-0.07046830654144287,-0.42472144961357117,0.6186161041259766
1737751389757099300,3.261099365234375,-0.13409282267093658,-0.31137147545814514,0.6941465139389038
1737751389767167200,3.271167236328125,-0.2914438247680664,-0.07903996109962463,0.8315113186836243
1737751389777235200,3.281235107421875,-0.5518325567245483,0.20746876299381256,1.0081028938293457
1737751389787303200,3.29130322265625,-0.8369945287704468,0.35726040601730347,1.1038017272949219
1737751389797370000,3.3013701171875,-1.0619826316833496,0.25335848331451416,1.1052334308624268
1737751389807438300,3.311438232421875,-1.173587441444397,-0.03289616480469704,1.0956697463989258
1737751389817506300,3.32150634765625,-1.184870719909668,-0.39433106780052185,1.0960417985916138
1737751389827574300,3.33157421875,-1.1950440406799316,-0.7813685536384583,1.0757964849472046
1737751389837642200,3.341642333984375,-1.246825933456421,-1.187261939048767,1.0422285795211792
1737751389847710500,3.35171044921875,-1.3691833019256592,-1.55583655834198,0.9760770201683044
1737751389857778400,3.3617783203125,-1.5804952383041382,-1.8316574096679688,0.854021430015564
1737751389867846100,3.37184619140625,-1.8373899459838867,-2.0310163497924805,0.6959037184715271
1737751389877914000,3.3819140625,-2.066584825515747,-2.1711232662200928,0.5442513227462769
1737751389887982300,3.391982421875,-2.216761589050293,-2.230752468109131,0.43136152625083923
1737751389898050300,3.40205029296875,-2.2847702503204346,-2.19765043258667,0.38763293623924255
1737751389908118300,3.4121181640625,-2.3004205226898193,-2.0529062747955322,0.4339357316493988
1737751389918186200,3.422186279296875,-2.3388149738311768,-1.7807239294052124,0.5385995507240295
1737751389928254500,3.43225439453125,-2.426698684692383,-1.403027057647705,0.6370363831520081
1737751389938322400,3.442322509765625,-2.540982961654663,-0.9441236257553101,0.6852710247039795
1737751389948390100,3.45239013671875,-2.598893880844116,-0.45467936992645264,0.7529153227806091
1737751389958458000,3.4624580078125,-2.565678358078003,0.0518120639026165,0.831534206867218
1737751389968526300,3.4725263671875,-2.475377321243286,0.5445250868797302,0.9319769740104675
1737751389978594300,3.48259423828125,-2.363980293273926,1.020635962486267,1.024678349494934
1737751389988662300,3.492662353515625,-2.2552363872528076,1.4622358083724976,1.0568403005599976
1737751389998730200,3.502730224609375,-2.1300508975982666,1.8334596157073975,1.0884528160095215
1737751390008798500,3.512798583984375,-1.9819929599761963,2.193251609802246,1.1761027574539185
1737751390018866200,3.5228662109375,-1.8183329105377197,2.6096107959747314,1.3555657863616943
1737751390028934100,3.53293408203125,-1.6832972764968872,3.0867831707000732,1.568769097328186
1737751390039002000,3.543002197265625,-1.6109943389892578,3.5000603199005127,1.8713526725769043
1737751390049070300,3.5530703125,-1.4738454818725586,3.590632438659668,2.012345790863037
1737751390059138300,3.56313818359375,-1.2486255168914795,3.3811309337615967,2.0071613788604736
1737751390069206300,3.573206298828125,-1.0347169637680054,3.1212158203125,1.9889698028564453
1737751390079274200,3.583274169921875,-1.001661777496338,2.870786666870117,1.8351435661315918
1737751390089342500,3.593342529296875,-1.0351084470748901,2.497448682785034,1.731292724609375
1737751390099410200,3.60341015625,-1.0406978130340576,2.138493537902832,1.6315723657608032
1737751390109478100,3.61347802734375,-0.9671919345855713,1.66591215133667,1.3983159065246582
1737751390119546000,3.623546142578125,-0.7447740435600281,1.1762021780014038,1.2429113388061523
1737751390129614300,3.6336142578125,-0.5454654693603516,0.9393861293792725,1.1999921798706055
1737751390139682300,3.643682373046875,-0.46445581316947937,0.8784729838371277,1.182183861732483
1737751390149750300,3.653750244140625,-0.4679996967315674,0.8629677891731262,1.1833367347717285
1737751390159818200,3.663818359375,-0.4930935800075531,0.9389336705207825,1.2000763416290283
1737751390169886500,3.673886474609375,-0.535942792892456,1.1205508708953857,1.1988723278045654
1737751390179954200,3.6839541015625,-0.59676593542099,1.3778254985809326,1.2440706491470337
1737751390190022100,3.694022216796875,-0.6961540579795837,1.700426697731018,1.2618727684020996
1737751390200090400,3.70409033203125,-0.8668767809867859,1.9638231992721558,1.1184957027435303
1737751390210158300,3.714158447265625,-0.9991338849067688,1.9624402523040771,0.971036434173584
1737751390220226300,3.724226318359375,-1.0681822299957275,1.65775728225708,0.7894434928894043
1737751390230294300,3.734294189453125,-0.981486439704895,1.0793118476867676,0.48774516582489014
1737751390240362500,3.744362548828125,-0.6806051731109619,0.3252792954444885,0.09462158381938934
1737751390250430500,3.754430419921875,-0.252766489982605,-0.4928898513317108,-0.3840981423854828
1737751390260498200,3.764498291015625,0.146689310669899,-1.2181415557861328,-0.8991697430610657
1737751390270566100,3.774566162109375,0.40071651339530945,-1.7092108726501465,-1.295074462890625
1737751390280634400,3.78463427734375,0.4731782078742981,-1.9172104597091675,-1.457366943359375
1737751390290702300,3.794702392578125,0.4129321873188019,-1.9195561408996582,-1.4962528944015503
1737751390300770300,3.804770263671875,0.26496294140815735,-1.7555224895477295,-1.5118768215179443
1737751390310838300,3.81483837890625,0.06330360472202301,-1.5374308824539185,-1.4672901630401611
1737751390320906500,3.824906494140625,-0.16279131174087524,-1.2847213745117188,-1.3196338415145874
1737751390330973700,3.8349736328125,-0.41595807671546936,-0.9023277163505554,-1.1204781532287598
1737751390341041700,3.845041748046875,-0.6000890135765076,-0.34023159742355347,-0.9227086305618286
1737751390351109600,3.855109619140625,-0.6505415439605713,0.3176000714302063,-0.7420701384544373
1737751390361176600,3.865176513671875,-0.5879255533218384,0.9768642783164978,-0.5659390091896057
1737751390371244500,3.87524462890625,-0.4733518362045288,1.5308153629302979,-0.3999415338039398
1737751390381312500,3.8853125,-0.37302178144454956,1.8859026432037354,-0.27747130393981934
1737751390391380500,3.89538037109375,-0.33472099900245667,2.0350141525268555,-0.21406862139701843
1737751390401448400,3.905448486328125,-0.3442170321941376,2.042057752609253,-0.18608784675598145
1737751390411516400,3.915516357421875,-0.39750075340270996,1.9665995836257935,-0.17554892599582672
1737751390421584600,3.925584716796875,-0.5048695802688599,1.8075920343399048,-0.17962142825126648
1737751390431652600,3.935652587890625,-0.6390864849090576,1.5348047018051147,-0.23082788288593292
1737751390441720600,3.945720458984375,-0.7636076211929321,1.1548798084259033,-0.31592628359794617
1737751390451788500,3.95578857421875,-0.8331574201583862,0.7389593124389648,-0.4232069253921509
1737751390461856500,3.9658564453125,-0.8446832895278931,0.34469959139823914,-0.5445528030395508
1737751390471924500,3.975924560546875,-0.8247495293617249,-0.013324061408638954,-0.6510219573974609
1737751390481992400,3.985992431640625,-0.7927324771881104,-0.30181366205215454,-0.7231742143630981
1737751390492060400,3.996060302734375,-0.7627453207969666,-0.5105966925621033,-0.7582762837409973
1737751390502128600,4.006128662109375,-0.7491312026977539,-0.629715085029602,-0.7607583403587341
1737751390512196600,4.016196533203125,-0.7545028328895569,-0.6712920665740967,-0.7322550415992737
1737751390522264600,4.0262646484375,-0.7825280427932739,-0.6522083878517151,-0.6590884327888489
1737751390532332500,4.03633251953125,-0.823616623878479,-0.5725785493850708,-0.5565196871757507
1737751390542400500,4.046400390625,-0.8469640612602234,-0.46740102767944336,-0.44600969552993774
1737751390552468500,4.056468505859375,-0.8414686322212219,-0.3681900203227997,-0.32552245259284973
1737751390562536400,4.066536376953125,-0.8077149391174316,-0.26355788111686707,-0.20352809131145477
1737751390572604700,4.076604736328125,-0.7720727920532227,-0.1536785066127777,-0.08865343779325485
1737751390582672600,4.086672607421875,-0.7504393458366394,-0.05956585705280304,0.0054360441863536835
1737751390592740600,4.09674072265625,-0.7447311282157898,-0.004449609667062759,0.08694954216480255
1737751390602808600,4.10680859375,-0.7388410568237305,0.018279138952493668,0.14522776007652283
1737751390612876500,4.11687646484375,-0.7438080906867981,0.030422087758779526,0.18206541240215302
1737751390622944500,4.126944580078125,-0.7558253407478333,0.02732882648706436,0.19369889795780182
1737751390633012500,4.137012451171875,-0.7587398886680603,0.012823120690882206,0.2069087028503418
1737751390643080400,4.14708056640625,-0.7367967963218689,-0.011812451295554638,0.22349700331687927
1737751390653148700,4.157148681640625,-0.6848211884498596,-0.017359815537929535,0.25216805934906006
1737751390663216600,4.167216552734375,-0.6115826964378357,0.017185112461447716,0.2845526337623596
1737751390673284600,4.17728466796875,-0.5469357967376709,0.08515777438879013,0.3152857720851898
1737751390683352600,4.1873525390625,-0.5078775882720947,0.18233278393745422,0.36358699202537537
1737751390693420500,4.197420654296875,-0.49004215002059937,0.3017353415489197,0.41711148619651794
1737751390703488500,4.207488525390625,-0.47572579979896545,0.4434775710105896,0.4819232225418091
1737751390713556500,4.217556396484375,-0.46193647384643555,0.5934641361236572,0.5587141513824463
1737751390723624400,4.22762451171875,-0.4506763517856598,0.7382612824440002,0.6257445812225342
1737751390733692700,4.237692626953125,-0.43319591879844666,0.8678464293479919,0.6845468878746033
1737751390743759600,4.247759521484375,-0.40930014848709106,0.9992135167121887,0.7237995266914368
1737751390753827600,4.25782763671875,-0.3951593041419983,1.1238065958023071,0.7395095229148865
1737751390763895600,4.2678955078125,-0.3697673976421356,1.2417534589767456,0.7438523173332214
1737751390773963500,4.277963623046875,-0.3203825354576111,1.3506439924240112,0.754788875579834
1737751390784031700,4.28803173828125,-0.2590416967868805,1.4549421072006226,0.7640068531036377
1737751390794099500,4.298099365234375,-0.20487351715564728,1.533437728881836,0.7561944723129272
1737751390804167400,4.30816748046875,-0.15525883436203003,1.5788222551345825,0.7332987189292908
1737751390814235400,4.3182353515625,-0.10818745940923691,1.577346682548523,0.6844452023506165
1737751390824303600,4.3283037109375,-0.046479616314172745,1.5372657775878906,0.6606325507164001
1737751390834371600,4.33837158203125,0.04807085543870926,1.4961066246032715,0.649894654750824
1737751390844439600,4.348439453125,0.13483291864395142,1.452877163887024,0.622096061706543
1737751390854507500,4.358507568359375,0.19381873309612274,1.3981355428695679,0.617311418056488
1737751390864575700,4.36857568359375,0.21608303487300873,1.3442102670669556,0.6627619862556458
1737751390874643500,4.3786435546875,0.2097788006067276,1.2875994443893433,0.7558242678642273
1737751390884711400,4.38871142578125,0.1874958574771881,1.24283766746521,0.8676637411117554
1737751390894779400,4.398779296875,0.14376036822795868,1.2011806964874268,0.9720870852470398
1737751390904847600,4.40884765625,0.08324135839939117,1.1498749256134033,1.0384151935577393
1737751390914915600,4.41891552734375,0.031861260533332825,1.1030796766281128,1.0563353300094604
1737751390924983600,4.428983642578125,0.027465445920825005,1.0522255897521973,1.0258214473724365
1737751390935051500,4.439051513671875,0.04897499829530716,0.985011637210846,0.9643087983131409
1737751390945119700,4.44911962890625,0.0721796527504921,0.8675148487091064,0.9157068729400635
1737751390955187500,4.4591875,0.1089983880519867,0.6860665082931519,0.8728435635566711
1737751390965255400,4.46925537109375,0.1390409767627716,0.4301609694957733,0.8282678723335266
1737751390975323400,4.479323486328125,0.14132703840732574,0.09799500554800034,0.7889921069145203
1737751390985391600,4.4893916015625,0.11926887184381485,-0.2956225872039795,0.7322321534156799
1737751390995459600,4.49945947265625,0.06510842591524124,-0.7179445624351501,0.6450751423835754
1737751391005527600,4.509527587890625,-0.020383568480610847,-1.1582225561141968,0.5406509637832642
1737751391015595500,4.519595458984375,-0.12223882973194122,-1.587755560874939,0.4248642027378082
1737751391025663500,4.52966357421875,-0.22753408551216125,-1.9650232791900635,0.3254028558731079
1737751391035731500,4.5397314453125,-0.33744701743125916,-2.2721474170684814,0.23096929490566254
1737751391045799400,4.54979931640625,-0.425289511680603,-2.4941859245300293,0.1397262066602707
1737751391055867400,4.559867431640625,-0.48093387484550476,-2.609863758087158,0.047739557921886444
1737751391065935600,4.569935546875,-0.5005158185958862,-2.6128761768341064,-0.0453331284224987
1737751391076002600,4.58000244140625,-0.5015318393707275,-2.493035078048706,-0.14484401047229767
1737751391086070500,4.590070556640625,-0.48632171750068665,-2.2572181224823,-0.2347019910812378
1737751391096138500,4.600138427734375,-0.467173308134079,-1.9344805479049683,-0.3068044185638428
1737751391106206700,4.610206787109375,-0.4400911033153534,-1.575640082359314,-0.35058093070983887
1737751391116274700,4.620274658203125,-0.40807056427001953,-1.2249661684036255,-0.3780905604362488
1737751391126342700,4.6303427734375,-0.3842160999774933,-0.9112218618392944,-0.39389485120773315
1737751391136410400,4.640410400390625,-0.36396464705467224,-0.6470615863800049,-0.40392377972602844
1737751391146478600,4.650478515625,-0.33586055040359497,-0.4189107120037079,-0.405973345041275
1737751391156546600,4.660546630859375,-0.3038291335105896,-0.24537540972232819,-0.3975910246372223
1737751391166614500,4.670614501953125,-0.2788819670677185,-0.13416685163974762,-0.3899427056312561
1737751391176682500,4.6806826171875,-0.25715988874435425,-0.08806567639112473,-0.37606072425842285
1737751391186750700,4.690750732421875,-0.2417074292898178,-0.09763867408037186,-0.35924869775772095
1737751391196818700,4.700818603515625,-0.2336481809616089,-0.15904557704925537,-0.3474988341331482
1737751391206886700,4.71088671875,-0.23840804398059845,-0.26684021949768066,-0.3577525317668915
1737751391216954400,4.720954345703125,-0.24667182564735413,-0.41458094120025635,-0.38544195890426636
1737751391227022600,4.731022705078125,-0.2659485936164856,-0.5875564217567444,-0.4221602976322174
1737751391237090600,4.741090576171875,-0.2932896614074707,-0.7849462032318115,-0.4598946273326874
1737751391247158500,4.751158447265625,-0.33260378241539,-0.9996103048324585,-0.4916357696056366
1737751391257226500,4.7612265625,-0.37096768617630005,-1.225434422492981,-0.5235617756843567
1737751391267294700,4.771294677734375,-0.39451348781585693,-1.440101981163025,-0.5464015603065491
1737751391277362700,4.78136279296875,-0.4159673750400543,-1.6206847429275513,-0.5601328015327454
1737751391287430400,4.791430419921875,-0.4471721649169922,-1.761526346206665,-0.5586819052696228
1737751391297498400,4.801498291015625,-0.47610554099082947,-1.8650282621383667,-0.5342820286750793
1737751391307566600,4.811566650390625,-0.48626312613487244,-1.9083762168884277,-0.4992894232273102
1737751391317634600,4.821634521484375,-0.47735804319381714,-1.8824548721313477,-0.46102219820022583
1737751391327702500,4.83170263671875,-0.4507024586200714,-1.7840266227722168,-0.40169471502304077
1737751391337771000,4.84177099609375,-0.4234868288040161,-1.6234453916549683,-0.3371652364730835
1737751391347839200,4.851839111328125,-0.4014856517314911,-1.4359298944473267,-0.27125734090805054
1737751391357907000,4.861906982421875,-0.376913458108902,-1.2472052574157715,-0.20347429811954498
1737751391367975000,4.871974853515625,-0.33853092789649963,-1.0781903266906738,-0.14940626919269562
1737751391378043000,4.88204296875,-0.28401947021484375,-0.9287058115005493,-0.09669165313243866
1737751391388111000,4.892111083984375,-0.23070351779460907,-0.7797812819480896,-0.05694584175944328
1737751391398179000,4.902178955078125,-0.18552619218826294,-0.6251136660575867,-0.038183603435754776
1737751391408247000,4.9122470703125,-0.147697314620018,-0.4770893156528473,-0.025778600946068764
1737751391418315000,4.92231494140625,-0.1095813512802124,-0.33973705768585205,-0.014217818155884743
1737751391428382000,4.9323818359375,-0.06985258311033249,-0.21804630756378174,-0.0008263788768090308
1737751391438450200,4.9424501953125,-0.031081220135092735,-0.1238686814904213,0.014279869385063648
1737751391448518100,4.95251806640625,0.00800333172082901,-0.05928516015410423,0.04091760516166687
1737751391458585900,4.9625859375,0.0384451262652874,-0.007835285738110542,0.05512317270040512
1737751391468654000,4.972654052734375,0.05817302688956261,0.03357287496328354,0.06322610378265381
1737751391478722000,4.98272216796875,0.06776279956102371,0.07276155799627304,0.06877107173204422
1737751391488790000,4.9927900390625,0.06578167527914047,0.10624441504478455,0.06851541250944138
1737751391498858000,5.00285791015625,0.0602998249232769,0.1287665069103241,0.07519781589508057
1737751391508926200,5.01292626953125,0.056402288377285004,0.1339961439371109,0.08686698973178864
1737751391518994200,5.022994140625,0.045945387333631516,0.11642275005578995,0.09134216606616974
1737751391529062100,5.033062255859375,0.03266153857111931,0.07572245597839355,0.09982326626777649
1737751391539129900,5.0431298828125,0.0231106448918581,0.013834322802722454,0.1037122830748558
1737751391549198000,5.053197998046875,0.01636858657002449,-0.057258762419223785,0.09963471442461014
1737751391559266000,5.06326611328125,0.002406698651611805,-0.12584981322288513,0.08963827043771744
1737751391569334000,5.073333984375,-0.010628143325448036,-0.1778983622789383,0.09554462879896164
1737751391579402000,5.083402099609375,-0.020566526800394058,-0.20838463306427002,0.11802703887224197
1737751391589470200,5.09347021484375,-0.02786092646420002,-0.2226828783750534,0.15096421539783478
1737751391599538200,5.1035380859375,-0.03304290398955345,-0.2054825872182846,0.1827506422996521
1737751391609606100,5.113606201171875,-0.04947966709733009,-0.1565573811531067,0.21047760546207428
1737751391619673900,5.123673828125,-0.06469963490962982,-0.09312301874160767,0.24497832357883453
1737751391629742000,5.1337421875,-0.07823088765144348,-0.025179920718073845,0.2702599763870239
1737751391639810000,5.14381005859375,-0.10622310638427734,0.03429245948791504,0.27856823801994324
1737751391649878000,5.1538779296875,-0.13308800756931305,0.07556932419538498,0.2849033772945404
1737751391659946000,5.163946044921875,-0.1734388917684555,0.11601981520652771,0.2889993190765381
1737751391670014200,5.17401416015625,-0.20725518465042114,0.17048704624176025,0.3004964590072632
1737751391680082200,5.184082275390625,-0.23818114399909973,0.24617408215999603,0.3039710819721222
1737751391690150100,5.194150146484375,-0.2598571479320526,0.3345281779766083,0.31505727767944336
1737751391700217900,5.2042177734375,-0.26559972763061523,0.4472222328186035,0.3333180546760559
1737751391710286000,5.2142861328125,-0.27103257179260254,0.6039319634437561,0.36652687191963196
1737751391720354000,5.22435400390625,-0.2736741602420807,0.7973331212997437,0.4062042236328125
1737751391730422000,5.234422119140625,-0.26735207438468933,1.0158255100250244,0.46279773116111755
1737751391740490000,5.244489990234375,-0.250153124332428,1.2481048107147217,0.527355432510376
1737751391750558200,5.25455810546875,-0.22582539916038513,1.4718133211135864,0.6008632183074951
1737751391760626200,5.264626220703125,-0.19972403347492218,1.671136736869812,0.6683107018470764
1737751391770693000,5.274693115234375,-0.16346243023872375,1.8288606405258179,0.7269782423973083
1737751391780761000,5.284760986328125,-0.10888253897428513,1.9460618495941162,0.7720706462860107
1737751391790829000,5.2948291015625,-0.059312593191862106,2.0263826847076416,0.798797070980072
1737751391800897000,5.30489697265625,-0.01818033494055271,2.061136484146118,0.8097197413444519
1737751391810965000,5.314965087890625,0.002430667169392109,2.0488600730895996,0.806567907333374
1737751391821033000,5.325032958984375,0.00959483627229929,1.9996589422225952,0.7914981245994568
1737751391831101000,5.335100830078125,0.018972625955939293,1.9358800649642944,0.7743806838989258
1737751391841169200,5.345169189453125,0.033303629606962204,1.8569260835647583,0.7532186508178711
1737751391851237000,5.355237060546875,0.04758616164326668,1.7696620225906372,0.7235869765281677
1737751391861305000,5.36530517578125,0.06747464835643768,1.6804354190826416,0.6931361556053162
1737751391871373000,5.375373046875,0.08484458178281784,1.5916776657104492,0.6707916855812073
1737751391881441000,5.38544091796875,0.11005672812461853,1.498910903930664,0.6514965295791626
1737751391891509000,5.395509033203125,0.12258956581354141,1.398577094078064,0.6251195073127747
1737751391901577000,5.405576904296875,0.11562033742666245,1.308010458946228,0.5955565571784973
1737751391911645000,5.41564501953125,0.10204167664051056,1.2268480062484741,0.5729053616523743
1737751391921713200,5.425713134765625,0.0891578420996666,1.1465044021606445,0.5553303360939026
1737751391931781000,5.435781005859375,0.0793323740363121,1.0740387439727783,0.5429484844207764
1737751391941849000,5.44584912109375,0.0572797991335392,1.02505624294281,0.5348586440086365
1737751391951917000,5.4559169921875,0.03750769421458244,0.9968196153640747,0.5311568379402161
1737751391961985000,5.465985107421875,0.0270148403942585,0.9835807681083679,0.5300984978675842
1737751391972053000,5.476052978515625,0.023362847045063972,0.9734601974487305,0.5294806361198425
1737751391982121000,5.486120849609375,0.024602282792329788,0.968565821647644,0.5252629518508911
1737751391992189000,5.49618896484375,0.016476711258292198,0.9654608964920044,0.5099069476127625
1737751392002257200,5.506257080078125,0.0021257351618260145,0.9816614389419556,0.48880964517593384
1737751392012325000,5.5163251953125,-0.01619148626923561,1.005645513534546,0.4651525020599365
1737751392022393000,5.52639306640625,-0.0258632879704237,1.049017310142517,0.4375115633010864
1737751392032460800,5.536460693359375,-0.030238064005970955,1.1071040630340576,0.4105454683303833
1737751392042529000,5.546529052734375,-0.03837108984589577,1.1730681657791138,0.3728494644165039
1737751392052597000,5.556596923828125,-0.05337054654955864,1.237919569015503,0.3248920738697052
1737751392062665000,5.5666650390625,-0.08152814954519272,1.2999666929244995,0.26577121019363403
1737751392072733000,5.57673291015625,-0.11111347377300262,1.3601468801498413,0.2063627541065216
1737751392082800000,5.586800048828125,-0.13444143533706665,1.4018043279647827,0.14593669772148132
1737751392092868000,5.5968681640625,-0.1519826054573059,1.4119545221328735,0.09290437400341034
1737751392102936000,5.60693603515625,-0.173679381608963,1.3953994512557983,0.04358502849936485
1737751392113004000,5.617004150390625,-0.20218266546726227,1.3644343614578247,-0.00911520142108202
1737751392123072300,5.627072265625,-0.23197411000728607,1.3378278017044067,-0.0633760392665863
1737751392133140000,5.637139892578125,-0.2690354585647583,1.320406198501587,-0.11683793365955353
1737751392143208000,5.6472080078125,-0.28851887583732605,1.310164213180542,-0.15807326138019562
1737751392153276000,5.65727587890625,-0.2886999845504761,1.3112070560455322,-0.18430618941783905
1737751392163344100,5.66734423828125,-0.2866690456867218,1.31847083568573,-0.19239340722560883
1737751392173412000,5.677412109375,-0.2773192226886749,1.325490951538086,-0.18430006504058838
1737751392183480000,5.68747998046875,-0.2759215831756592,1.3295460939407349,-0.16392076015472412
1737751392193548000,5.697548095703125,-0.303203821182251,1.3255873918533325,-0.14135099947452545
1737751392203616300,5.7076162109375,-0.3632708787918091,1.3345798254013062,-0.12262658029794693
1737751392213684000,5.71768408203125,-0.457235187292099,1.380043387413025,-0.12146571278572083
1737751392223752000,5.727751953125,-0.5669111013412476,1.4737112522125244,-0.12555952370166779
1737751392233820000,5.73781982421875,-0.6564556360244751,1.6197627782821655,-0.12142043560743332
1737751392243888000,5.74788818359375,-0.6935718059539795,1.821327567100525,-0.1011148989200592
1737751392253956000,5.7579560546875,-0.6806954741477966,2.051821708679199,-0.06818757951259613
1737751392264024000,5.768024169921875,-0.6255256533622742,2.282057285308838,-0.03666293993592262
1737751392274092000,5.778092041015625,-0.5514495968818665,2.4739208221435547,-0.03242984414100647
1737751392284160300,5.78816015625,-0.46293434500694275,2.6110105514526367,-0.0562177337706089
1737751392294228000,5.79822802734375,-0.39624908566474915,2.66739821434021,-0.10701140761375427
1737751392304296000,5.8082958984375,-0.3509223461151123,2.626585006713867,-0.16029539704322815
1737751392314364000,5.818364013671875,-0.33018723130226135,2.486858367919922,-0.19736208021640778
1737751392324432100,5.82843212890625,-0.25993677973747253,2.256910800933838,-0.21332105994224548
1737751392334499600,5.83849951171875,-0.4190502464771271,2.032583236694336,-0.26553526520729065
1737751392344567600,5.848567626953125,-0.5488498210906982,1.7593590021133423,-0.3223905563354492
1737751392354635500,5.858635498046875,-0.5990615487098694,1.5140008926391602,-0.3524738848209381
1737751392364703700,5.868703857421875,-0.5970471501350403,1.316352367401123,-0.39361652731895447
1737751392374770700,5.878770751953125,-0.5342047810554504,1.1735693216323853,-0.44369781017303467
1737751392384838700,5.888838623046875,-0.44425255060195923,1.0682306289672852,-0.48765167593955994
1737751392394906600,5.89890673828125,-0.36577823758125305,0.9964038729667664,-0.5361247062683105
1737751392404974300,5.908974365234375,-0.3094388246536255,0.9378875494003296,-0.5914875268936157
1737751392415042600,5.91904248046875,-0.27148422598838806,0.8979398608207703,-0.6284047961235046
1737751392425110500,5.929110595703125,-0.24502946436405182,0.8972048759460449,-0.6356363892555237
1737751392435178500,5.939178466796875,-0.22454096376895905,0.919994056224823,-0.6269986629486084
1737751392445246500,5.94924658203125,-0.19254042208194733,0.9706202149391174,-0.6093744039535522
1737751392455314700,5.959314697265625,-0.13602733612060547,1.0335789918899536,-0.5973443388938904
1737751392465382700,5.969382568359375,-0.0765211433172226,1.1055526733398438,-0.588916540145874
1737751392475450600,5.97945068359375,-0.023366842418909073,1.1820567846298218,-0.5825217366218567
1737751392485518300,5.989518310546875,0.01318291388452053,1.2403690814971924,-0.5632548332214355
1737751392495586600,5.999586669921875,0.04946741834282875,1.2732722759246826,-0.5275604724884033
1737751392505654500,6.009654541015625,0.10035110265016556,1.2784172296524048,-0.47498756647109985
1737751392515722500,6.019722412109375,0.1675192266702652,1.279615044593811,-0.41718098521232605
1737751392525790500,6.02979052734375,0.24777597188949585,1.2762365341186523,-0.3663867712020874
1737751392535858700,6.039858642578125,0.33167487382888794,1.2670929431915283,-0.32873207330703735
1737751392545926700,6.0499267578125,0.398094117641449,1.2504574060440063,-0.31064334511756897
1737751392555994600,6.05999462890625,0.4385107755661011,1.230684757232666,-0.3113538920879364
1737751392566062300,6.070062255859375,0.46566304564476013,1.188026785850525,-0.30868300795555115
1737751392576130600,6.080130615234375,0.495747447013855,1.1390899419784546,-0.29127630591392517
1737751392586198500,6.090198486328125,0.5029006600379944,1.06710684299469,-0.2696290910243988
1737751392596266500,6.1002666015625,0.46685826778411865,0.9567358493804932,-0.23559148609638214
1737751392606334500,6.11033447265625,0.3868800699710846,0.815384566783905,-0.2078418731689453
1737751392616402700,6.120402587890625,0.2990093529224396,0.6813617944717407,-0.21217218041419983
1737751392626470700,6.130470703125,0.23839792609214783,0.6024200916290283,-0.22585630416870117
1737751392636538600,6.14053857421875,0.21597810089588165,0.5816458463668823,-0.24824389815330505
1737751392646606300,6.1506064453125,0.215799942612648,0.5902433395385742,-0.2760518193244934
1737751392656673500,6.160673583984375,0.22482912242412567,0.6284399628639221,-0.32114872336387634
1737751392666741500,6.170741455078125,0.2264278084039688,0.6789995431900024,-0.3694606125354767
1737751392676809500,6.1808095703125,0.21731367707252502,0.748897135257721,-0.3982784152030945
1737751392686877400,6.19087744140625,0.21194687485694885,0.8576827645301819,-0.40314799547195435
1737751392696945400,6.2009453125,0.2166188508272171,0.9968627095222473,-0.4100740849971771
1737751392707013600,6.211013671875,0.21500657498836517,1.1325968503952026,-0.42332038283348083
1737751392717081600,6.22108154296875,0.1875547170639038,1.24547278881073,-0.4472595155239105
1737751392727149600,6.231149658203125,0.1592082977294922,1.3439916372299194,-0.4614967703819275
1737751392737217500,6.241217529296875,0.13739994168281555,1.4125430583953857,-0.47588956356048584
1737751392747285500,6.251285400390625,0.12264203280210495,1.4631625413894653,-0.49664732813835144
1737751392757353500,6.261353515625,0.10518740862607956,1.4614815711975098,-0.5231921076774597
1737751392767421400,6.27142138671875,0.09808555245399475,1.4171100854873657,-0.5479432344436646
1737751392777489400,6.281489501953125,0.10507635027170181,1.3373936414718628,-0.5668120384216309
1737751392787557600,6.2915576171875,0.130288764834404,1.2220932245254517,-0.5876262187957764
1737751392797625600,6.30162548828125,0.1481063812971115,1.0835134983062744,-0.6181694865226746
1737751392807693600,6.311693603515625,0.1593393236398697,0.9166408777236938,-0.6591722965240479
1737751392817761500,6.321761474609375,0.16128236055374146,0.7403944730758667,-0.7109268307685852
1737751392827829500,6.33182958984375,0.15454110503196716,0.577261209487915,-0.7637757062911987
1737751392837897500,6.3418974609375,0.16721375286579132,0.44986727833747864,-0.8010812401771545
1737751392847965400,6.35196533203125,0.20355631411075592,0.36262479424476624,-0.8260601162910461
1737751392858033700,6.36203369140625,0.24813976883888245,0.3147129416465759,-0.8511662483215332
1737751392868101600,6.3721015625,0.2811658978462219,0.28456753492355347,-0.8567783236503601
1737751392878169600,6.382169677734375,0.2932521104812622,0.2516527473926544,-0.836543083190918
1737751392888237600,6.392237548828125,0.2771322727203369,0.21224941313266754,-0.8182724714279175
1737751392898305500,6.402305419921875,0.2561691999435425,0.17226098477840424,-0.8109213709831238
1737751392908373500,6.41237353515625,0.22597214579582214,0.13134390115737915,-0.792009174823761
1737751392918440700,6.422440673828125,0.20074374973773956,0.10645879805088043,-0.768327534198761
1737751392928508400,6.43250830078125,0.1850350946187973,0.1083427220582962,-0.7349498867988586
1737751392938576400,6.442576416015625,0.175678089261055,0.10775069892406464,-0.6858065724372864
1737751392948644600,6.45264453125,0.17914073169231415,0.10461722314357758,-0.6595105528831482
1737751392958712600,6.462712646484375,0.17843684554100037,0.07781277596950531,-0.6566066145896912
1737751392968780500,6.472780517578125,0.14312013983726501,0.048297490924596786,-0.6686957478523254
1737751392978848500,6.4828486328125,0.08682304620742798,0.016619989648461342,-0.6768152117729187
1737751392988916700,6.492916748046875,0.03639156371355057,-0.0310500618070364,-0.6657958626747131
1737751392998984400,6.502984375,-0.008500809781253338,-0.08702225238084793,-0.6388078927993774
1737751393009052400,6.513052490234375,-0.0531228743493557,-0.1291625201702118,-0.6320967674255371
1737751393019120400,6.523120361328125,-0.10020782798528671,-0.16416257619857788,-0.6526584625244141
1737751393029188600,6.533188720703125,-0.14218483865261078,-0.20070940256118774,-0.6768453121185303
1737751393039256600,6.543256591796875,-0.1667109578847885,-0.2441900372505188,-0.690831184387207
1737751393049324500,6.553324462890625,-0.18451417982578278,-0.2842447757720947,-0.7082836627960205
1737751393059392500,6.563392578125,-0.20819367468357086,-0.30406907200813293,-0.7197951674461365
1737751393069460700,6.573460693359375,-0.2256360501050949,-0.3077642023563385,-0.7239302396774292
1737751393079528400,6.583528564453125,-0.2329360395669937,-0.3102758526802063,-0.7368338108062744
1737751393089596400,6.593596435546875,-0.2431601881980896,-0.30954718589782715,-0.7527778744697571
1737751393099664400,6.603664306640625,-0.2555675804615021,-0.2935123145580292,-0.7682809829711914
1737751393109732600,6.613732666015625,-0.2662593722343445,-0.2571987807750702,-0.7787650227546692
1737751393119800600,6.623800537109375,-0.2772638201713562,-0.2083580046892166,-0.7839134335517883
1737751393129868500,6.63386865234375,-0.2919788658618927,-0.15422871708869934,-0.7825626730918884
1737751393139935500,6.643935546875,-0.3236289322376251,-0.10240919888019562,-0.778113067150116
1737751393150003500,6.65400341796875,-0.3633696734905243,-0.0418422557413578,-0.7548839449882507
1737751393160071700,6.66407177734375,-0.3896031677722931,0.03153395652770996,-0.7187096476554871
1737751393170139600,6.6741396484375,-0.3829314112663269,0.13398389518260956,-0.6573153138160706
1737751393180207600,6.68420751953125,-0.3669247329235077,0.2648460566997528,-0.596917450428009
1737751393190275300,6.694275390625,-0.35377058386802673,0.3919837474822998,-0.5477331280708313
1737751393200343600,6.704343505859375,-0.3394201397895813,0.49068981409072876,-0.5218456387519836
1737751393210411500,6.71441162109375,-0.3225466310977936,0.5569945573806763,-0.5108097195625305
1737751393220479500,6.7244794921875,-0.30431434512138367,0.5909708738327026,-0.4997437596321106
1737751393230547500,6.73454736328125,-0.2664508521556854,0.5987478494644165,-0.4772869348526001
1737751393240615700,6.74461572265625,-0.22851493954658508,0.6002756953239441,-0.45098528265953064
1737751393250683600,6.75468359375,-0.18671049177646637,0.6174365878105164,-0.4280591905117035
1737751393260751400,6.76475146484375,-0.13920076191425323,0.6596181392669678,-0.4072798788547516
1737751393270819300,6.7748193359375,-0.09348388016223907,0.7330260276794434,-0.38959941267967224
1737751393280887600,6.784887451171875,-0.05315243452787399,0.8418142795562744,-0.3496677279472351
1737751393290955500,6.79495556640625,-0.015395468100905418,0.9985849857330322,-0.27829259634017944
1737751393301023500,6.8050234375,0.024053936824202538,1.1771544218063354,-0.19413378834724426
1737751393311091500,6.815091552734375,0.047566454857587814,1.329879879951477,-0.11650370806455612
1737751393321159700,6.82515966796875,0.04572088271379471,1.4661189317703247,-0.004336691461503506
1737751393331227600,6.8352275390625,0.0511619858443737,1.6124590635299683,0.12996625900268555
1737751393341296400,6.84529638671875,0.06297896802425385,1.7101041078567505,0.28554973006248474
1737751393351364400,6.8553642578125,0.1002829298377037,1.6844453811645508,0.3764018714427948
1737751393361432300,6.865432373046875,0.14443254470825195,1.5909128189086914,0.3723309636116028
1737751393371499300,6.875499267578125,0.18527744710445404,1.4986896514892578,0.28679075837135315
1737751393381567500,6.8855673828125,0.18507903814315796,1.369642734527588,0.1974656730890274
1737751393391635500,6.895635498046875,0.13872778415679932,1.2155418395996094,0.13690724968910217
1737751393401703400,6.905703369140625,0.06660538911819458,1.0697851181030273,0.07068002969026566
1737751393411771400,6.915771484375,0.006853911560028791,0.9692681431770325,-0.0003278351214248687
1737751393421839400,6.92583935546875,-0.03385969623923302,0.9566431641578674,-0.047253530472517014
1737751393431907300,6.9359072265625,-0.06737717241048813,0.999725341796875,-0.06360587477684021
1737751393441975300,6.945975341796875,-0.09594836831092834,1.0799834728240967,-0.07302946597337723
1737751393452043300,6.956043212890625,-0.12910045683383942,1.149222731590271,-0.09530787914991379
1737751393462111500,6.966111572265625,-0.16880260407924652,1.1933428049087524,-0.1535288393497467
1737751393472179500,6.976179443359375,-0.22452418506145477,1.200879454612732,-0.21881915628910065
1737751393482247400,6.986247314453125,-0.2876861095428467,1.1684139966964722,-0.26877766847610474
1737751393492315400,6.9963154296875,-0.37157195806503296,1.1012821197509766,-0.30708616971969604
1737751393502383400,7.00638330078125,-0.4533432424068451,1.042903184890747,-0.35751020908355713
1737751393512451300,7.016451416015625,-0.5276012420654297,0.9640606045722961,-0.4208257794380188
1737751393522519300,7.026519287109375,-0.5806136131286621,0.8867916464805603,-0.4785836338996887
1737751393532587300,7.036587158203125,-0.6223205327987671,0.8242526054382324,-0.5318686962127686
1737751393542655500,7.046655517578125,-0.6466432213783264,0.7754552364349365,-0.566279411315918
1737751393552723500,7.056723388671875,-0.6657921075820923,0.7462627291679382,-0.5891354084014893
1737751393562791400,7.06679150390625,-0.7014177441596985,0.736044704914093,-0.5908230543136597
1737751393572859400,7.076859375,-0.759492814540863,0.7439987659454346,-0.59197998046875
1737751393582926300,7.08692626953125,-0.8260398507118225,0.7651512026786804,-0.6125566363334656
1737751393592994600,7.09699462890625,-0.8757767677307129,0.8067671060562134,-0.6259424686431885
1737751393603062300,7.107062255859375,-0.9091965556144714,0.8807502388954163,-0.6347167491912842
1737751393613130200,7.117130126953125,-0.9220356345176697,0.9330558180809021,-0.6543892621994019
1737751393623198200,7.1271982421875,-0.9350835084915161,0.9701858758926392,-0.6934061646461487
1737751393633266400,7.137266357421875,-0.9529109597206116,1.0056219100952148,-0.7503565549850464
1737751393643334400,7.14733447265625,-0.9749228358268738,1.02139413356781,-0.8138929009437561
1737751393653402400,7.15740234375,-1.010115146636963,0.9995429515838623,-0.8862504959106445
1737751393663470300,7.16747021484375,-1.052464246749878,0.9411635398864746,-0.9484544396400452
1737751393673538600,7.17753857421875,-1.097907543182373,0.8848168849945068,-0.9549698829650879
1737751393683606300,7.187606201171875,-1.1346038579940796,0.8393652439117432,-0.8944364786148071
1737751393693674200,7.19767431640625,-1.1313813924789429,0.8082259893417358,-0.7967091202735901
1737751393703742200,7.2077421875,-1.1187809705734253,0.7824625372886658,-0.6932786107063293
1737751393713810400,7.217810546875,-1.126725673675537,0.7522711157798767,-0.6146682500839233
1737751393723878400,7.22787841796875,-1.1538456678390503,0.6880822777748108,-0.562178909778595
1737751393733946400,7.2379462890625,-1.1827857494354248,0.596538245677948,-0.5084435343742371
1737751393744014300,7.248014404296875,-1.217963457107544,0.49203020334243774,-0.43452775478363037
1737751393754082600,7.25808251953125,-1.2453018426895142,0.41964200139045715,-0.3342605233192444
1737751393764150300,7.268150390625,-1.2141335010528564,0.44386985898017883,-0.23889140784740448
1737751393774218200,7.27821826171875,-1.1372435092926025,0.5143647789955139,-0.2010263204574585
1737751393784285200,7.28828515625,-1.0778305530548096,0.5752241611480713,-0.17369616031646729
1737751393794354400,7.2983544921875,-1.0356940031051636,0.6460248231887817,-0.13434875011444092
1737751393804421400,7.30842138671875,-0.9607646465301514,0.7384564876556396,-0.09847784042358398
1737751393814489300,7.3184892578125,-0.8516994118690491,0.822119951248169,-0.04591182991862297
1737751393824557300,7.328557373046875,-0.7242229580879211,0.87172532081604,0.0016650082543492317
1737751393834625500,7.33862548828125,-0.580406129360199,0.8819342851638794,0.032103609293699265
1737751393844693500,7.348693603515625,-0.41547444462776184,0.8218384385108948,0.0647536963224411
1737751393854761500,7.358761474609375,-0.22084955871105194,0.7274078130722046,0.10685081779956818
1737751393864829200,7.3688291015625,-0.021252557635307312,0.5663020014762878,0.14717747271060944
1737751393874897400,7.3788974609375,0.14913462102413177,0.33464428782463074,0.2047499418258667
1737751393884965400,7.38896533203125,0.2956218123435974,0.12350542843341827,0.26628735661506653
1737751393895033300,7.399033447265625,0.4225773513317108,-0.025502962991595268,0.3251522481441498
1737751393905101300,7.409101318359375,0.5219332575798035,-0.10127469152212143,0.35554584860801697
1737751393915169500,7.41916943359375,0.6060393452644348,-0.11779534071683884,0.38248398900032043
1737751393925237500,7.429237548828125,0.6798884868621826,-0.058756258338689804,0.4019644856452942
1737751393935305500,7.439305419921875,0.7282786965370178,0.06752578169107437,0.3949292004108429
1737751393945373200,7.449373291015625,0.7479783296585083,0.16949501633644104,0.3850715160369873
1737751393955441400,7.45944140625,0.7615801692008972,0.23769511282444,0.3948802053928375
1737751393965509400,7.46950927734375,0.768914520740509,0.28129079937934875,0.43463826179504395
1737751393975577300,7.479577392578125,0.7562347054481506,0.2918403744697571,0.476430207490921
1737751393985645300,7.489645263671875,0.7183887362480164,0.26605379581451416,0.519282341003418
1737751393995713500,7.499713623046875,0.6817923784255981,0.23183882236480713,0.5677563548088074
1737751394005781500,7.509781494140625,0.6521682143211365,0.20751164853572845,0.6155875325202942
1737751394015848400,7.519848388671875,0.5953315496444702,0.157766193151474,0.6220928430557251
1737751394025916400,7.52991650390625,0.5161547064781189,0.07668359577655792,0.6069799661636353
1737751394035984400,7.539984375,0.45179834961891174,0.022660572081804276,0.5945083498954773
1737751394046052400,7.55005224609375,0.4195844829082489,-0.0018333201296627522,0.5888680815696716
1737751394056120300,7.560120361328125,0.4119760990142822,0.01750016398727894,0.5924776792526245
1737751394066188300,7.570188232421875,0.4087219834327698,0.044927261769771576,0.6128767132759094
1737751394076256300,7.58025634765625,0.4072234332561493,0.0708526000380516,0.6262961030006409
1737751394086324500,7.590324462890625,0.4072580337524414,0.11751145124435425,0.6237112283706665
1737751394096392400,7.600392333984375,0.38049566745758057,0.12456003576517105,0.6227450370788574
1737751394106460400,7.61046044921875,0.34354084730148315,0.06978786736726761,0.6429259777069092
1737751394116528400,7.6205283203125,0.31089210510253906,0.0021781993564218283,0.6682994961738586
1737751394126596400,7.630596435546875,0.31406551599502563,-0.06458591669797897,0.6579976081848145
1737751394136664300,7.640664306640625,0.326141357421875,-0.17240452766418457,0.6316748857498169
1737751394146732300,7.650732177734375,0.34825649857521057,-0.3043859899044037,0.6011420488357544
1737751394156800300,7.66080029296875,0.35184139013290405,-0.4442192614078522,0.555006206035614
1737751394166868500,7.670868408203125,0.31721365451812744,-0.5642852187156677,0.5104150772094727
1737751394176936400,7.6809365234375,0.2529579699039459,-0.6447914838790894,0.4788486063480377
1737751394187004400,7.69100439453125,0.1983165442943573,-0.6535389423370361,0.44779616594314575
1737751394197072400,7.701072265625,0.1641860157251358,-0.6393756866455078,0.4012118875980377
1737751394207140400,7.711140380859375,0.1375541388988495,-0.6358180046081543,0.3530648648738861
1737751394217208300,7.721208251953125,0.12265241891145706,-0.6172294020652771,0.33757323026657104
1737751394227275300,7.731275146484375,0.12317413091659546,-0.5973232984542847,0.3343939483165741
1737751394237343200,7.74134326171875,0.14704936742782593,-0.6213024258613586,0.31730154156684875
1737751394247411500,7.751411376953125,0.1931963562965393,-0.6593017578125,0.2926313281059265
1737751394257479400,7.7614794921875,0.25433722138404846,-0.7043019533157349,0.2758733928203583
1737751394267547400,7.77154736328125,0.3230864405632019,-0.7496654391288757,0.24945136904716492
1737751394277615400,7.781615478515625,0.37445828318595886,-0.8028256297111511,0.20735877752304077
1737751394287683600,7.79168359375,0.3950807452201843,-0.8620727062225342,0.13895975053310394
1737751394297751600,7.80175146484375,0.39179545640945435,-0.9170001149177551,0.06852260231971741
1737751394307819300,7.8118193359375,0.38657140731811523,-0.949806272983551,0.04303242266178131
1737751394317887200,7.82188720703125,0.37473365664482117,-0.9792861342430115,0.03756522014737129
1737751394327955500,7.83195556640625,0.35211941599845886,-1.0247113704681396,0.009192166849970818
1737751394338023000,7.84202294921875,0.3334006071090698,-1.071804404258728,0.015026086941361427
1737751394348091000,7.8520908203125,0.31082284450531006,-1.1090565919876099,0.03744484484195709
1737751394358158800,7.862158935546875,0.2818383276462555,-1.1658669710159302,0.04458451271057129
1737751394368226800,7.872226806640625,0.25324690341949463,-1.2327975034713745,0.026399649679660797
1737751394378295000,7.882294921875,0.24445022642612457,-1.3061175346374512,-0.007694138679653406
1737751394388363000,7.892363037109375,0.26206544041633606,-1.4020613431930542,-0.017367804422974586
1737751394398430700,7.9024306640625,0.29937127232551575,-1.5221366882324219,-0.03111051581799984
1737751394408498700,7.912498779296875,0.3337438702583313,-1.6860078573226929,-0.07487024366855621
1737751394418567000,7.92256689453125,0.33965370059013367,-1.9280431270599365,-0.15873637795448303
1737751394428635000,7.932634765625,0.28294727206230164,-2.2114834785461426,-0.24010980129241943
1737751394438702800,7.942702880859375,0.17836441099643707,-2.4355974197387695,-0.28923526406288147
1737751394448770800,7.952770751953125,0.059232164174318314,-2.5291500091552734,-0.33665284514427185
1737751394458838000,7.962838134765625,0.002302569104358554,-2.458491086959839,-0.3611408770084381
1737751394468906000,7.972906005859375,0.0588955394923687,-2.244196653366089,-0.3122479021549225
1737751394478974000,7.982973876953125,0.18831798434257507,-1.9718945026397705,-0.23699204623699188
1737751394489042000,7.9930419921875,0.31699445843696594,-1.7323665618896484,-0.16634370386600494
1737751394499110000,8.00310986328125,0.3716984689235687,-1.540160894393921,-0.11773941665887833
1737751394509177900,8.013177734375,0.3522067666053772,-1.4115171432495117,-0.0690765380859375
1737751394519245800,8.023245849609374,0.2804412543773651,-1.3463187217712402,-0.017608022317290306
1737751394529313800,8.033313720703125,0.16720284521579742,-1.3646098375320435,0.023764718323946
1737751394539382000,8.043382080078125,0.048594966530799866,-1.445123314857483,0.05266321077942848
1737751394549450000,8.053449951171874,-0.022778550162911415,-1.549923300743103,0.051294080913066864
1737751394559518000,8.06351806640625,-0.027059581130743027,-1.66770339012146,0.020790232345461845
1737751394569586000,8.0735859375,0.037091176956892014,-1.762665867805481,-0.028538167476654053
1737751394579654000,8.08365380859375,0.14390496909618378,-1.8645960092544556,-0.07789453119039536
1737751394589721900,8.093721923828125,0.2517819106578827,-1.9708212614059448,-0.13072125613689423
1737751394599789800,8.103789794921875,0.3372456729412079,-2.063115358352661,-0.16657540202140808
1737751394609857800,8.11385791015625,0.3740476369857788,-2.126288652420044,-0.18893477320671082
1737751394619926000,8.123926025390626,0.363278865814209,-2.1451475620269775,-0.19178594648838043
1737751394629994000,8.133993896484375,0.3207804262638092,-2.11433482170105,-0.17453531920909882
1737751394640062000,8.14406201171875,0.2820194363594055,-2.0220773220062256,-0.13773097097873688
1737751394650130000,8.1541298828125,0.2622089684009552,-1.8760648965835571,-0.07279431074857712
1737751394660198000,8.164197998046875,0.2799600064754486,-1.6877686977386475,0.01575845666229725
1737751394670265900,8.174265869140624,0.3370763063430786,-1.4932786226272583,0.12299809604883194
1737751394680332800,8.184332763671875,0.41816556453704834,-1.2925220727920532,0.23992924392223358
1737751394690400800,8.19440087890625,0.5035510063171387,-1.0994852781295776,0.3625268042087555
1737751394700468700,8.20446875,0.5821552872657776,-0.915814995765686,0.4666936695575714
1737751394710537000,8.214536865234376,0.644074559211731,-0.7640135288238525,0.5553455352783203
1737751394720605000,8.22460498046875,0.6860973834991455,-0.6447497010231018,0.6125177145004272
1737751394730673000,8.2346728515625,0.7064610123634338,-0.5654367804527283,0.6527460813522339
1737751394740740900,8.244740966796876,0.7224018573760986,-0.5231601595878601,0.6781004667282104
1737751394750808800,8.254808837890625,0.742174506187439,-0.5022705793380737,0.688146710395813
1737751394760876800,8.264876708984374,0.7831685543060303,-0.5188248157501221,0.6876654624938965
1737751394770944800,8.27494482421875,0.831757128238678,-0.5617879629135132,0.6819024085998535
1737751394781012700,8.2850126953125,0.8943493962287903,-0.6257227659225464,0.668869137763977
1737751394791081000,8.2950810546875,0.9515149593353271,-0.7010664939880371,0.6642983555793762
1737751394801149000,8.30514892578125,0.994863748550415,-0.7909934520721436,0.6656826734542847
1737751394811217000,8.315216796875,1.0294078588485718,-0.8727631568908691,0.6631806492805481
1737751394821284900,8.325284912109375,1.056734323501587,-0.9474626779556274,0.657957136631012
1737751394831352800,8.335352783203126,1.0718719959259033,-1.0127320289611816,0.6523370146751404
1737751394841420800,8.3454208984375,1.0767836570739746,-1.0584009885787964,0.6589512825012207
1737751394851488800,8.35548876953125,1.0928335189819336,-1.0824239253997803,0.6735914945602417
1737751394861556700,8.365556640625,1.1326186656951904,-1.0645477771759033,0.6911526322364807
1737751394871625000,8.375625,1.1884175539016724,-1.0057417154312134,0.6864817142486572
1737751394881693000,8.38569287109375,1.22476065158844,-0.9262189269065857,0.6584258079528809
1737751394891759900,8.395759765625,1.2212399244308472,-0.8400470018386841,0.6357175707817078
1737751394901827800,8.405827880859375,1.2082908153533936,-0.7461344003677368,0.6273371577262878
1737751394911896000,8.41589599609375,1.1916817426681519,-0.6391828656196594,0.6341724395751953
1737751394921964000,8.425964111328126,1.2049230337142944,-0.5147373676300049,0.630992591381073
1737751394932031700,8.43603173828125,1.2520558834075928,-0.3886374831199646,0.605501651763916
1737751394942099700,8.446099609375,1.2984085083007812,-0.3025236427783966,0.5477006435394287
1737751394952168000,8.45616796875,1.3198552131652832,-0.2640862464904785,0.5003714561462402
1737751394962236000,8.46623583984375,1.3125879764556885,-0.2043033391237259,0.4973765015602112
1737751394972304000,8.476303955078125,1.242466926574707,-0.17863978445529938,0.45809513330459595
1737751394982371800,8.486371826171874,1.1353585720062256,-0.2664458155632019,0.402052104473114
1737751394992440000,8.496440185546875,1.0619016885757446,-0.39432039856910706,0.3634660840034485
1737751395002508000,8.506508056640625,1.0026463270187378,-0.5361816883087158,0.25890159606933594
1737751395012575700,8.51657568359375,0.9438900351524353,-0.7828569412231445,0.1019577905535698
1737751395022643700,8.526643798828125,0.9060678482055664,-1.175534963607788,-0.058942146599292755
1737751395032712000,8.5367119140625,0.8899831771850586,-1.6176592111587524,-0.24484916031360626
1737751395042780000,8.54677978515625,0.8962245583534241,-2.009678363800049,-0.4276285767555237
1737751395052847900,8.556847900390625,0.9349847435951233,-2.3253870010375977,-0.5726786851882935
1737751395062915800,8.566915771484375,0.970425546169281,-2.4946045875549316,-0.6960334181785583
1737751395072984000,8.576984130859374,0.9602264165878296,-2.482391119003296,-0.7722671627998352
1737751395083052000,8.587052001953126,0.9099991917610168,-2.3287782669067383,-0.7724059224128723
1737751395093119700,8.59711962890625,0.8404912352561951,-2.0536506175994873,-0.695320725440979
1737751395103187700,8.607187744140624,0.7788297533988953,-1.7022126913070679,-0.5444603562355042
1737751395113256000,8.617255859375,0.7391126751899719,-1.3101708889007568,-0.376057505607605
1737751395123323000,8.627322998046875,0.717360258102417,-0.9256641864776611,-0.22169403731822968
1737751395133390800,8.637390869140624,0.6995378732681274,-0.5867007970809937,-0.07895660400390625
1737751395143458800,8.647458740234375,0.6684739589691162,-0.34064891934394836,0.03208816051483154
1737751395153526800,8.65752685546875,0.6195242404937744,-0.200130432844162,0.07632406800985336
1737751395163595000,8.667594970703124,0.5837275981903076,-0.18428222835063934,0.07176100462675095
1737751395173663000,8.6776630859375,0.5785275101661682,-0.25434014201164246,0.0007225155713967979
1737751395183731000,8.68773095703125,0.5920358896255493,-0.38247066736221313,-0.09830872714519501
1737751395193798700,8.697798583984374,0.6131640672683716,-0.5565165281295776,-0.20794707536697388
1737751395203867000,8.707866943359376,0.6162797212600708,-0.7668876051902771,-0.34413978457450867
1737751395213934800,8.717934814453125,0.6370877623558044,-0.9708878397941589,-0.4856196939945221
1737751395224002800,8.7280029296875,0.6767358779907227,-1.125683307647705,-0.5973331928253174
1737751395234070800,8.73807080078125,0.710938572883606,-1.1944924592971802,-0.6778000593185425
1737751395244139000,8.748138916015625,0.7440794706344604,-1.1718342304229736,-0.6045618057250977
1737751395254207000,8.75820703125,0.7944350838661194,-1.009948492050171,-0.46574267745018005
1737751395264275000,8.76827490234375,0.816811203956604,-0.7142505049705505,-0.3291858732700348
1737751395274342700,8.7783427734375,0.7739250063896179,-0.3695000112056732,-0.1714463233947754
1737751395284411000,8.788410888671875,0.6509860157966614,-0.0017470336752012372,-0.05229116603732109
1737751395294478800,8.798478759765626,0.48551130294799805,0.3092430531978607,0.10300920903682709
1737751395304546800,8.808546875,0.36190202832221985,0.5191643238067627,0.3806149959564209
1737751395314614800,8.81861474609375,0.2691510319709778,0.7146661877632141,0.7584525346755981
1737751395324683000,8.82868310546875,0.16561798751354218,0.9309899806976318,1.1368792057037354
1737751395334751200,8.838751220703125,0.03654682636260986,1.106131672859192,1.3321073055267334
1737751395344819000,8.84881884765625,-0.0314687117934227,1.1633659601211548,1.282740831375122
1737751395354887000,8.858886962890624,0.05288238823413849,1.031911015510559,1.131729245185852
1737751395364955000,8.868954833984375,0.2086765170097351,0.6845541000366211,0.9800089001655579
1737751395375023000,8.879023193359375,0.3152279853820801,0.19373831152915955,0.8631693720817566
1737751395385091000,8.889091064453124,0.3700547516345978,-0.4032832682132721,0.77713942527771
1737751395395159000,8.899158935546875,0.4343671500682831,-1.0518649816513062,0.6905579566955566
1737751395405227000,8.90922705078125,0.5620436072349548,-1.6666290760040283,0.5902707576751709
1737751395415294000,8.9192939453125,0.6946317553520203,-2.123610019683838,0.5106728672981262
1737751395425362200,8.929362060546875,0.7638582587242126,-2.384544849395752,0.44866541028022766
1737751395435430100,8.93943017578125,0.7603633999824524,-2.4513564109802246,0.4263571798801422
1737751395445498000,8.949498046875,0.703457236289978,-2.321223497390747,0.46638527512550354
1737751395455565800,8.95956591796875,0.6046478152275085,-2.0153143405914307,0.5600718259811401
1737751395465634000,8.969634033203125,0.48340529203414917,-1.6078366041183472,0.6472259163856506
1737751395475702000,8.979701904296874,0.39175498485565186,-1.177625060081482,0.7585662603378296
1737751395485770000,8.98977001953125,0.3629491627216339,-0.6917941570281982,0.8754196763038635
1737751395495838000,8.999837890625,0.38160276412963867,-0.19974000751972198,0.9923390746116638
1737751395505906200,9.00990625,0.4379408657550812,0.20162685215473175,1.0825752019882202
1737751395515974100,9.01997412109375,0.5176908373832703,0.4360547959804535,1.1070866584777832
1737751395526042000,9.0300419921875,0.5836602449417114,0.527582049369812,1.072400689125061
1737751395536109800,9.04010986328125,0.5999041795730591,0.5098685622215271,1.01893150806427
1737751395546178000,9.050177978515626,0.5782303214073181,0.420434832572937,0.9984126687049866
1737751395556246000,9.06024609375,0.5385010242462158,0.32196977734565735,0.9731699228286743
1737751395566314000,9.07031396484375,0.5053044557571411,0.23576219379901886,0.9288629293441772
1737751395576382000,9.0803818359375,0.5025461912155151,0.18644098937511444,0.8787765502929688
1737751395586450200,9.0904501953125,0.508965253829956,0.14406315982341766,0.8578433394432068
1737751395596518100,9.10051806640625,0.5040554404258728,0.08758391439914703,0.8484247922897339
1737751395606585900,9.1105859375,0.49175482988357544,0.011868643574416637,0.8435748815536499
1737751395616654000,9.120654052734375,0.48886263370513916,-0.06911249458789825,0.8264888525009155
1737751395626722000,9.13072216796875,0.4994305968284607,-0.14953942596912384,0.7879002094268799
1737751395636790000,9.1407900390625,0.5050565004348755,-0.19366879761219025,0.7310243844985962
1737751395646858000,9.15085791015625,0.48540931940078735,-0.1908133625984192,0.6976518034934998
1737751395656926200,9.16092626953125,0.42945894598960876,-0.16476339101791382,0.6759473085403442
1737751395666994200,9.170994140625,0.3477824628353119,-0.1419115960597992,0.658495306968689
1737751395677062100,9.181062255859375,0.264049768447876,-0.1415339559316635,0.6395967602729797
1737751395687129900,9.1911298828125,0.18782183527946472,-0.16914668679237366,0.5776441693305969
1737751395697198000,9.201197998046876,0.13189731538295746,-0.2465309500694275,0.5140393376350403
1737751395707266000,9.21126611328125,0.10374503582715988,-0.35161876678466797,0.49468934535980225
1737751395717334000,9.221333984375,0.0894894003868103,-0.4146573841571808,0.5090810656547546
1737751395727402000,9.231402099609374,0.08574473112821579,-0.43343693017959595,0.5204232335090637
1737751395737470200,9.24147021484375,0.08131536096334457,-0.40056657791137695,0.5108187794685364
1737751395747538200,9.2515380859375,0.08485843241214752,-0.3393503725528717,0.4829259216785431
1737751395757606100,9.261606201171874,0.0944942831993103,-0.29656296968460083,0.45119622349739075
1737751395767673900,9.271673828125,0.11216249316930771,-0.28228282928466797,0.4207533597946167
1737751395777742000,9.2817421875,0.12304123491048813,-0.25652340054512024,0.41410475969314575
1737751395787810000,9.29181005859375,0.13218121230602264,-0.19179074466228485,0.4151889383792877
1737751395797877000,9.301876953125,0.14520353078842163,-0.12313950806856155,0.4155775010585785
1737751395807945000,9.311945068359375,0.16578151285648346,-0.08121123164892197,0.40609318017959595
1737751395818013000,9.322012939453124,0.1853269785642624,-0.09585888683795929,0.3973252475261688
1737751395828081200,9.3320810546875,0.19375722110271454,-0.14306049048900604,0.3973894417285919
1737751395838149000,9.342149169921875,0.1976531594991684,-0.20664452016353607,0.39497846364974976
1737751395848217000,9.352217041015624,0.22222508490085602,-0.28729248046875,0.38326296210289
1737751395858285000,9.36228515625,0.26303428411483765,-0.38858848810195923,0.3614729940891266
1737751395868353000,9.37235302734375,0.28902754187583923,-0.4588831663131714,0.34677764773368835
1737751395878421000,9.3824208984375,0.2858858108520508,-0.476249635219574,0.32870545983314514
1737751395888489000,9.392489013671875,0.26016393303871155,-0.4474259614944458,0.3042752146720886
1737751395898557000,9.402556884765625,0.23146358132362366,-0.38468775153160095,0.29132798314094543
1737751395908625200,9.412625244140624,0.21001501381397247,-0.2897484600543976,0.2915375828742981
1737751395918693000,9.422693115234376,0.18835046887397766,-0.19879965484142303,0.30158647894859314
1737751395928761000,9.432760986328125,0.1817261278629303,-0.14228124916553497,0.2960819900035858
1737751395938829000,9.4428291015625,0.1956470012664795,-0.12419199198484421,0.274545818567276
1737751395948897000,9.45289697265625,0.2285972237586975,-0.1512790024280548,0.2494380623102188
1737751395958965000,9.462965087890625,0.26689109206199646,-0.1937689334154129,0.21226592361927032
1737751395969033000,9.473032958984374,0.29087284207344055,-0.22923637926578522,0.15407238900661469
1737751395979101000,9.483100830078126,0.3003765940666199,-0.26497921347618103,0.08013159036636353
1737751395989169200,9.493169189453125,0.3070411682128906,-0.31974977254867554,0.017001619562506676
1737751395999237000,9.503237060546875,0.3087533116340637,-0.39089664816856384,-0.054978031665086746
1737751396009305000,9.51330517578125,0.3305147886276245,-0.4963381290435791,-0.13118039071559906
1737751396019373000,9.523373046875,0.3818853199481964,-0.6157569289207458,-0.22482804954051971
1737751396029441000,9.53344091796875,0.4468720257282257,-0.7245957851409912,-0.33872026205062866
1737751396039509000,9.543509033203126,0.5016966462135315,-0.7950339913368225,-0.4410804510116577
1737751396049577000,9.553576904296875,0.5342453122138977,-0.8202048540115356,-0.5605016350746155
1737751396059645000,9.56364501953125,0.5540943741798401,-0.7953506708145142,-0.6464415788650513
1737751396069713200,9.573713134765624,0.5744243860244751,-0.6976011991500854,-0.6848427653312683
1737751396079781000,9.583781005859375,0.6022568345069885,-0.5194799304008484,-0.672614336013794
1737751396089849000,9.59384912109375,0.6148990988731384,-0.3116886615753174,-0.6224880814552307
1737751396099917000,9.6039169921875,0.5882616639137268,-0.10677331686019897,-0.5571407675743103
1737751396109985000,9.613985107421875,0.5332836508750916,0.08012785762548447,-0.5294198989868164
1737751396120053000,9.624052978515625,0.5090168714523315,0.19864918291568756,-0.5023115873336792
1737751396130121000,9.634120849609374,0.5136180520057678,0.2668716311454773,-0.44556495547294617
1737751396140189000,9.64418896484375,0.5113570094108582,0.3277517855167389,-0.4051631987094879
1737751396150257200,9.654257080078125,0.5037827491760254,0.3466988205909729,-0.39390069246292114
1737751396160325000,9.6643251953125,0.5062307119369507,0.2935083210468292,-0.40727055072784424
1737751396170393000,9.67439306640625,0.5104824304580688,0.20056132972240448,-0.436385840177536
1737751396180461000,9.6844609375,0.509037435054779,0.11242827773094177,-0.43613630533218384
1737751396190529000,9.694529052734374,0.48968368768692017,0.005951898638159037,-0.4595758616924286
1737751396200597000,9.704596923828126,0.4888807237148285,-0.12232670933008194,-0.474417120218277
1737751396210665000,9.7146650390625,0.5076813101768494,-0.19839857518672943,-0.47174251079559326
1737751396220733000,9.72473291015625,0.5201241374015808,-0.16972725093364716,-0.4378391206264496
1737751396230801200,9.73480126953125,0.5117098689079285,-0.09400638937950134,-0.37814515829086304
1737751396240869000,9.744869140625,0.48996251821517944,-0.038658712059259415,-0.318180650472641
1737751396250937000,9.75493701171875,0.46778610348701477,-0.0006719155353493989,-0.26425614953041077
1737751396261004800,9.7650048828125,0.4592629373073578,0.04952733963727951,-0.2032356709241867
1737751396271073000,9.775072998046875,0.4562879204750061,0.11586268991231918,-0.10455277562141418
1737751396281141000,9.78514111328125,0.4228769540786743,0.19225972890853882,0.013171195983886719
1737751396291209000,9.795208984375,0.35523638129234314,0.24336685240268707,0.04961921647191048
1737751396301277000,9.80527685546875,0.3174855411052704,0.23209555447101593,0.07318979501724243
1737751396311345200,9.81534521484375,0.2959775924682617,0.20599684119224548,0.07801517099142075
1737751396321413000,9.8254130859375,0.28589245676994324,0.0993897020816803,-0.001264468883164227
1737751396331481000,9.835481201171875,0.30642756819725037,-0.09731057286262512,-0.05686621367931366
1737751396341548800,9.845548828125,0.3102835714817047,-0.2759399712085724,-0.09875054657459259
1737751396351616000,9.855615966796876,0.30337560176849365,-0.4297729432582855,-0.12421169877052307
1737751396361684000,9.86568408203125,0.2992090880870819,-0.54835045337677,-0.12373792380094528
1737751396371751700,9.875751708984374,0.3025452196598053,-0.6079837083816528,-0.11629225313663483
1737751396381821000,9.885821044921874,0.3105195164680481,-0.6232425570487976,-0.10333944112062454
1737751396391888000,9.895887939453125,0.30786168575286865,-0.6204214692115784,-0.10896670073270798
1737751396401955800,9.905955810546875,0.2933730185031891,-0.6072526574134827,-0.13695146143436432
1737751396412023800,9.91602392578125,0.2654939889907837,-0.6016491055488586,-0.19146662950515747
1737751396422092000,9.926092041015625,0.23672784864902496,-0.6173497438430786,-0.25628823041915894
1737751396432160000,9.936159912109375,0.21547609567642212,-0.651157557964325,-0.33846408128738403
1737751396442228000,9.94622802734375,0.21945884823799133,-0.7088269591331482,-0.42115283012390137
1737751396452295700,9.956295654296875,0.24651603400707245,-0.7589207291603088,-0.4871571362018585
1737751396462364000,9.966364013671875,0.2788577377796173,-0.7580176591873169,-0.5192990899085999
1737751396472431900,9.976431884765624,0.31978678703308105,-0.6926413178443909,-0.5235382914543152
1737751396482499800,9.986499755859375,0.3524738848209381,-0.5630484223365784,-0.48677605390548706
1737751396492567800,9.99656787109375,0.36466237902641296,-0.3838461935520172,-0.4342944622039795
1737751396502636000,10.006635986328124,0.34538084268569946,-0.1985407918691635,-0.4068641662597656
1737751396512704000,10.0167041015625,0.30667629837989807,-0.03771328926086426,-0.4139502942562103
1737751396522771700,10.026771728515625,0.24705718457698822,0.07658372074365616,-0.4185698330402374
1737751396532839700,10.036839599609374,0.1913401335477829,0.15067127346992493,-0.4071677625179291
1737751396542908000,10.046907958984375,0.14497876167297363,0.1630469709634781,-0.4057011604309082
1737751396552976000,10.056975830078125,0.10711127519607544,0.09594623744487762,-0.4469258189201355
1737751396563043800,10.0670439453125,0.09809940308332443,-0.024024110287427902,-0.5117623805999756
1737751396573111800,10.07711181640625,0.10426515340805054,-0.16899354755878448,-0.5937530994415283
1737751396583180000,10.087179931640625,0.11236835271120071,-0.31273072957992554,-0.6626213788986206
1737751396593248000,10.097248046875,0.1204337328672409,-0.41881057620048523,-0.7241718173027039
1737751396603315700,10.107315673828126,0.14882010221481323,-0.47806429862976074,-0.7710844874382019
1737751396613383700,10.1173837890625,0.1922011375427246,-0.45747941732406616,-0.7534008026123047
1737751396623452000,10.127451904296874,0.2199358195066452,-0.34964296221733093,-0.6891075968742371
1737751396633519900,10.137519775390626,0.19577988982200623,-0.16772721707820892,-0.604758083820343
1737751396643587800,10.147587890625,0.12190726399421692,0.02738342061638832,-0.518382728099823
1737751396653655800,10.15765576171875,0.041615620255470276,0.1769963502883911,-0.44418516755104065
1737751396663724000,10.16772412109375,-0.019780362024903297,0.26177915930747986,-0.3955715596675873
1737751396673792000,10.1777919921875,-0.04981602728366852,0.2737889289855957,-0.3752063810825348
1737751396683859700,10.187859619140625,-0.053161222487688065,0.21868281066417694,-0.36671462655067444
1737751396693927700,10.197927734375,-0.048582714051008224,0.10546011477708817,-0.3628831207752228
1737751396703996000,10.207995849609375,-0.05456284433603287,-0.042448922991752625,-0.37569400668144226
1737751396714064000,10.21806396484375,-0.05066797137260437,-0.21356847882270813,-0.4134480357170105
1737751396724131800,10.2281318359375,-0.03774232044816017,-0.379417359828949,-0.4544931948184967
1737751396734199800,10.23819970703125,-0.02431492693722248,-0.4955247938632965,-0.49366483092308044
1737751396744268000,10.24826806640625,-0.020849354565143585,-0.5559678673744202,-0.528032124042511
1737751396754336000,10.2583359375,-0.019085276871919632,-0.5720893144607544,-0.5305818319320679
1737751396764403700,10.26840380859375,-0.011896340176463127,-0.5353127121925354,-0.5132193565368652
1737751396774471700,10.2784716796875,-0.0032772859558463097,-0.4421238899230957,-0.47920307517051697
1737751396784540000,10.288539794921874,-0.006764429155737162,-0.3280268609523773,-0.4372550845146179
1737751396794607900,10.29860791015625,-0.015685752034187317,-0.19769497215747833,-0.4084141254425049
1737751396804675800,10.30867578125,-0.024172447621822357,-0.06921422481536865,-0.3643665015697479
1737751396814743800,10.318743896484374,-0.03434092923998833,0.06649886816740036,-0.3363135755062103
1737751396824812000,10.32881201171875,-0.03831383213400841,0.20268599689006805,-0.31231236457824707
1737751396834880000,10.3388798828125,-0.046977896243333817,0.3095397353172302,-0.27154308557510376
1737751396844947700,10.34894775390625,-0.06532014906406403,0.37564098834991455,-0.25655803084373474
1737751396855015700,10.359015625,-0.07483775913715363,0.40724605321884155,-0.2505919933319092
1737751396865084000,10.369083984375,-0.07559090107679367,0.4087832272052765,-0.23349212110042572
1737751396875152000,10.37915185546875,-0.09674172103404999,0.4042569398880005,-0.22995224595069885
1737751396885219800,10.3892197265625,-0.1325732171535492,0.3731863498687744,-0.2223728895187378
1737751396895288000,10.3992880859375,-0.1553776115179062,0.3224464952945709,-0.22355985641479492
1737751396905356000,10.40935595703125,-0.17314808070659637,0.2558131217956543,-0.22061945497989655
1737751396915423700,10.419423828125,-0.1916424036026001,0.1823945790529251,-0.21292585134506226
1737751396925491700,10.42949169921875,-0.21469952166080475,0.09624344855546951,-0.20930315554141998
1737751396935560000,10.439559814453125,-0.23307320475578308,-0.005727660376578569,-0.21194767951965332
1737751396945628000,10.4496279296875,-0.24042671918869019,-0.09537312388420105,-0.2096581608057022
1737751396955695900,10.45969580078125,-0.242010235786438,-0.1481063812971115,-0.190230131149292
1737751396965763800,10.469763916015625,-0.24768836796283722,-0.172671377658844,-0.16208504140377045
1737751396975832000,10.47983203125,-0.2514530122280121,-0.1792653650045395,-0.1232907772064209
1737751396985900000,10.489900146484375,-0.25070759654045105,-0.15836913883686066,-0.09110967069864273
1737751396995967700,10.4999677734375,-0.2453458458185196,-0.13217800855636597,-0.05269730091094971
1737751397006035700,10.51003564453125,-0.23325616121292114,-0.08051534742116928,-0.021810756996273994
1737751397016104000,10.52010400390625,-0.24295060336589813,-0.0302596352994442,0.00452790642157197
1737751397026172000,10.530171875,-0.2568477690219879,0.0015968313673511147,0.00953811127692461
1737751397036240000,10.540239990234374,-0.2754800319671631,0.019818179309368134,0.0062800003215670586
1737751397046307800,10.550307861328125,-0.2827022671699524,0.022725818678736687,0.000036751622246811166
1737751397056376000,10.5603759765625,-0.27790218591690063,0.017651697620749474,0.005634183529764414
1737751397066444000,10.570444091796874,-0.25915834307670593,-0.002246909076347947,0.009584982879459858
1737751397076511700,10.58051171875,-0.21231918036937714,-0.0243732500821352,0.029856165871024132
1737751397086579700,10.590579833984375,-0.16348080337047577,-0.02437618002295494,0.05850325524806976
1737751397096648000,10.60064794921875,-0.14781315624713898,-0.018310030922293663,0.06758277118206024
1737751397106716000,10.6107158203125,-0.1498507410287857,-0.018804846331477165,0.054915446788072586
1737751397116783900,10.620783935546875,-0.1630280613899231,-0.039330895990133286,0.01956491358578205
1737751397126851800,10.630851806640624,-0.1634906530380249,-0.09227746725082397,-0.0329132080078125
1737751397136920000,10.640920166015626,-0.13251809775829315,-0.18283559381961823,-0.08668189495801926
1737751397146988000,10.650988037109375,-0.059598080813884735,-0.2812468409538269,-0.15006539225578308
1737751397157055700,10.6610556640625,0.05284909904003143,-0.344743549823761,-0.19283975660800934
1737751397167123700,10.671123779296876,0.1617087423801422,-0.34934788942337036,-0.19392313063144684
1737751397177192000,10.68119189453125,0.20902910828590393,-0.25606533885002136,-0.18267473578453064
1737751397187260000,10.691260009765625,0.18814034759998322,-0.07002782076597214,-0.17514465749263763
1737751397197328000,10.701327880859376,0.13745266199111938,0.17887839674949646,-0.18775151669979095
1737751397207395800,10.711395751953125,0.07711075991392136,0.475240558385849,-0.2020212709903717
1737751397217464000,10.721464111328125,0.0020852552261203527,0.7740933299064636,-0.17471082508563995
1737751397227532000,10.731531982421876,-0.06608660519123077,1.0856541395187378,-0.04183080419898033
1737751397237599700,10.741599853515625,-0.14829865097999573,1.4213464260101318,0.20218293368816376
1737751397247667700,10.751667724609375,-0.2620646357536316,1.722987413406372,0.5285077691078186
1737751397257736000,10.76173583984375,-0.3800458610057831,1.9418865442276,0.8959081768989563
1737751397267804000,10.771803955078125,-0.4781380891799927,1.9996509552001953,1.1754149198532104
1737751397277871900,10.781871826171875,-0.5225598812103271,1.8246136903762817,1.2398881912231445
1737751397287939800,10.79193994140625,-0.5224557518959045,1.4187670946121216,1.1600918769836426
1737751397298008000,10.802008056640625,-0.47497132420539856,0.8287118077278137,1.0533419847488403
1737751397308076000,10.812075927734375,-0.38334551453590393,0.07514268904924393,0.9806028008460999
1737751397318143700,10.822143798828124,-0.2866610586643219,-0.7965304255485535,0.9073908925056458
1737751397328211700,10.832211669921875,-0.21207231283187866,-1.62247633934021,0.8107189536094666
1737751397338280200,10.8422802734375,-0.1409454047679901,-2.258244276046753,0.7052668333053589
1737751397348348200,10.85234814453125,-0.08496256172657013,-2.666832208633423,0.6251736283302307
1737751397358416100,10.862416015625,-0.08762385696172714,-2.8733110427856445,0.5949970483779907
1737751397368484000,10.872484130859375,-0.1654859036207199,-2.839740514755249,0.6160280108451843
1737751397378552300,10.88255224609375,-0.30205705761909485,-2.564911127090454,0.6957558989524841
1737751397388620000,10.8926201171875,-0.4318605959415436,-2.1597402095794678,0.7796401381492615
1737751397398688000,10.90268798828125,-0.5078211426734924,-1.7248029708862305,0.8636705875396729
1737751397408756000,10.912755859375,-0.4951498210430145,-1.2637317180633545,0.9629747867584229
1737751397418824200,10.92282421875,-0.4438120722770691,-0.7895321846008301,1.0513347387313843
1737751397428892200,10.93289208984375,-0.3890417516231537,-0.35259053111076355,1.1148204803466797
1737751397438960000,10.942960205078125,-0.3478842079639435,0.005152684170752764,1.113133430480957
1737751397449028000,10.953028076171876,-0.31984537839889526,0.26522475481033325,1.085930585861206
1737751397459096300,10.963096435546875,-0.29344412684440613,0.4496726095676422,1.0420539379119873
1737751397469164000,10.9731640625,-0.25104767084121704,0.558510422706604,0.9924389719963074
1737751397479232000,10.98323193359375,-0.18953903019428253,0.5826098918914795,0.9008312821388245
1737751397489300000,10.993300048828125,-0.12993749976158142,0.5201587677001953,0.7814055681228638
1737751397499368200,11.0033681640625,-0.09875506907701492,0.38584864139556885,0.6671066880226135
1737751397509436200,11.013436279296876,-0.10564280301332474,0.2721753418445587,0.5605812668800354
1737751397519504100,11.023504150390625,-0.12367693334817886,0.16497910022735596,0.4638723134994507
1737751397529572000,11.033572021484375,-0.12124732881784439,0.05018380656838417,0.3739863634109497
1737751397539640000,11.04364013671875,-0.11666669696569443,-0.01005023717880249,0.29259005188941956
1737751397549708000,11.0537080078125,-0.09199943393468857,-0.05299877002835274,0.2558096647262573
1737751397559776000,11.06377587890625,-0.05434979125857353,-0.10310214757919312,0.23460878431797028
1737751397569844000,11.073843994140624,0.0017813884187489748,-0.14769385755062103,0.21484199166297913
1737751397579912200,11.083912109375,0.09418509155511856,-0.171643927693367,0.2545417249202728
1737751397589979100,11.093979248046875,0.1785990446805954,-0.09869435429573059,0.3834054470062256
1737751397600048000,11.104048095703124,0.1776490956544876,0.054967910051345825,0.4930190145969391
1737751397610116000,11.1141162109375,0.10002779960632324,0.21432800590991974,0.5243005156517029
1737751397620183300,11.124183349609375,0.007965780794620514,0.3242419958114624,0.4597020745277405
1737751397630251300,11.134251220703124,-0.05320676416158676,0.3380688428878784,0.3472386598587036
1737751397640319200,11.1443193359375,-0.05968170613050461,0.23830710351467133,0.2499813437461853
1737751397650387000,11.154386962890625,-0.0031225562561303377,0.05463767796754837,0.17720353603363037
1737751397660455200,11.164455078125,0.08866222202777863,-0.16273938119411469,0.0760100781917572
1737751397670523100,11.174523193359375,0.19008392095565796,-0.39405277371406555,-0.05319131538271904
1737751397680591000,11.184591064453125,0.2810066342353821,-0.581369936466217,-0.1685330867767334
1737751397690659000,11.1946591796875,0.32948148250579834,-0.6736418008804321,-0.2656543254852295
1737751397700727300,11.204727294921875,0.3413722515106201,-0.6728702783584595,-0.3475819230079651
1737751397710795300,11.214795166015625,0.3283863961696625,-0.575470507144928,-0.39273130893707275
1737751397720863000,11.224863037109374,0.2893255650997162,-0.36549967527389526,-0.37683171033859253
1737751397730931000,11.234930908203125,0.22269566357135773,-0.10416395217180252,-0.31709274649620056
1737751397740999200,11.244999267578125,0.1719302237033844,0.16904175281524658,-0.2241998165845871
1737751397751067100,11.255067138671874,0.13824841380119324,0.457126259803772,-0.10860317945480347
1737751397761135000,11.265135009765626,0.11450580507516861,0.7047773599624634,0.010431068949401379
1737751397771203000,11.275203125,0.09578564763069153,0.8612593412399292,0.10144832730293274
1737751397781271300,11.285271240234374,0.07713846117258072,0.9280375838279724,0.15528786182403564
1737751397791339300,11.29533935546875,0.03732313588261604,0.9247803092002869,0.18208537995815277
1737751397801407000,11.305406982421875,-0.009750098921358585,0.8607126474380493,0.1959279626607895
1737751397811475000,11.315474853515624,-0.06217309460043907,0.7388026714324951,0.20510734617710114
1737751397821543200,11.325543212890626,-0.12871137261390686,0.57845538854599,0.19743505120277405
1737751397831611100,11.335611083984375,-0.20243699848651886,0.40897658467292786,0.1786288619041443
1737751397841679000,11.34567919921875,-0.24691204726696014,0.21804657578468323,0.15607136487960815
1737751397851747000,11.3557470703125,-0.2422885298728943,-0.0029758161399513483,0.1348283886909485
1737751397861815300,11.365815185546875,-0.20907625555992126,-0.2330510914325714,0.13762284815311432
1737751397871883300,11.37588330078125,-0.18223771452903748,-0.4283713102340698,0.14558489620685577
1737751397881951000,11.385950927734376,-0.18654164671897888,-0.5901442170143127,0.14590926468372345
1737751397892019000,11.39601904296875,-0.20413795113563538,-0.6872686743736267,0.13665318489074707
1737751397902087200,11.406087158203125,-0.21495971083641052,-0.725143313407898,0.12382820248603821
1737751397912155100,11.416155029296876,-0.20966880023479462,-0.7076264023780823,0.12468893826007843
1737751397922223000,11.42622314453125,-0.18876032531261444,-0.637792706489563,0.11863051354885101
1737751397932291000,11.436291015625,-0.15955477952957153,-0.5479882955551147,0.11720731854438782
1737751397942359300,11.446359375,-0.12852388620376587,-0.45400717854499817,0.1153566837310791
1737751397952427300,11.45642724609375,-0.11314412951469421,-0.34935933351516724,0.1148456260561943
1737751397962495000,11.466494873046875,-0.1139550656080246,-0.2185957282781601,0.09366311132907867
1737751397972563000,11.47656298828125,-0.10963408648967743,-0.09341436624526978,0.07071571797132492
1737751397982631200,11.486631103515625,-0.09501146525144577,0.018692728132009506,0.03558222949504852
1737751397992699100,11.49669921875,-0.07226860523223877,0.10197856277227402,0.004723116289824247
1737751398002767000,11.50676708984375,-0.05125120282173157,0.16741003096103668,-0.01284842099994421
1737751398012835000,11.5168349609375,-0.030520625412464142,0.2147168219089508,-0.028249481692910194
1737751398022903300,11.5269033203125,-0.011519769206643105,0.2416624277830124,-0.04319274425506592
1737751398032971300,11.53697119140625,-0.0022178804501891136,0.2521078884601593,-0.047570981085300446
1737751398043039000,11.5470390625,-0.003976099658757448,0.24865242838859558,-0.056115467101335526
1737751398053107000,11.55710693359375,-0.013532586395740509,0.23634488880634308,-0.05470345914363861
1737751398063175200,11.567175048828124,-0.0181699488312006,0.2028106302022934,-0.062484681606292725
1737751398073243100,11.5772431640625,-0.01944107562303543,0.15543273091316223,-0.07655736058950424
1737751398083311000,11.58731103515625,-0.0197441428899765,0.08993840962648392,-0.09351796656847
1737751398093379000,11.597379150390625,-0.017078585922718048,0.025044899433851242,-0.11040720343589783
1737751398103447300,11.607447265625,-0.023515712469816208,-0.026763170957565308,-0.11410526931285858
1737751398113515300,11.617515380859375,-0.023267505690455437,-0.06690126657485962,-0.11658014357089996
1737751398123583000,11.6275830078125,-0.018509235233068466,-0.09758780896663666,-0.10661965608596802
1737751398133651000,11.63765087890625,-0.028203142806887627,-0.11239338666200638,-0.09311449527740479
1737751398143719200,11.64771923828125,-0.042631082236766815,-0.1172933354973793,-0.07578770816326141
1737751398153787100,11.657787109375,-0.06466341763734818,-0.11565496027469635,-0.07025045901536942
1737751398163855000,11.667855224609376,-0.08019896596670151,-0.12804318964481354,-0.07310163974761963
1737751398173923000,11.677923095703125,-0.08633914589881897,-0.1474650800228119,-0.08081682026386261
1737751398183991300,11.6879912109375,-0.07708653062582016,-0.1575893610715866,-0.09024947136640549
1737751398194059000,11.69805908203125,-0.06084257736802101,-0.16371889412403107,-0.10055483877658844
1737751398204127000,11.708126953125,-0.028509140014648438,-0.16859647631645203,-0.10974513739347458
1737751398214195000,11.71819482421875,0.001948368619196117,-0.1583763211965561,-0.1219559982419014
1737751398224263200,11.72826318359375,0.01763145811855793,-0.1374284327030182,-0.13636477291584015
1737751398234331100,11.7383310546875,0.01561091747134924,-0.0946977436542511,-0.1343756467103958
1737751398244399000,11.748399169921875,-0.005674397107213736,-0.03389564901590347,-0.12396242469549179
1737751398254467000,11.758467041015624,-0.027472903952002525,0.0321187861263752,-0.10566464066505432
1737751398264535300,11.768535400390626,-0.043596211820840836,0.07293785363435745,-0.09227986633777618
1737751398274603000,11.77860302734375,-0.049737460911273956,0.09322448819875717,-0.082395538687706
1737751398284671000,11.7886708984375,-0.04747803509235382,0.09015865623950958,-0.08623262494802475
1737751398294739000,11.798739013671875,-0.04517599940299988,0.0692610964179039,-0.09868236631155014
1737751398304807200,11.80880712890625,-0.03912210091948509,0.043895553797483444,-0.10218416154384613
1737751398314875100,11.818875244140624,-0.035290081053972244,0.028210865333676338,-0.1058683767914772
1737751398324943000,11.828943115234376,-0.023008912801742554,0.01936943642795086,-0.10129439830780029
1737751398335011000,11.839010986328125,-0.0034991272259503603,0.009350358508527279,-0.10704202950000763
1737751398345078800,11.849078857421874,0.011844408698379993,-0.011118431575596333,-0.11583872139453888
1737751398355146800,11.859146728515626,0.013174924068152905,-0.03338751941919327,-0.10953395068645477
1737751398365214500,11.86921435546875,0.003319630166515708,-0.041724275797605515,-0.09008514881134033
1737751398375282400,11.879282470703124,-0.013110741972923279,-0.03305835276842117,-0.08177608996629715
1737751398385350700,11.8893505859375,-0.017530523240566254,-0.02521773800253868,-0.07849374413490295
1737751398395418600,11.899418701171875,-0.006148972548544407,-0.017463145777583122,-0.08032200485467911
1737751398405486600,11.909486572265624,0.0025571673177182674,-0.009788182564079762,-0.07419593632221222
1737751398415554600,11.919554443359376,0.017253288999199867,0.004879177547991276,-0.07165900617837906
1737751398425622800,11.929622802734375,0.03521551191806793,0.019772106781601906,-0.06522347778081894
1737751398435690800,11.939690673828125,0.05245228856801987,0.01980646140873432,-0.06239520013332367
1737751398445758500,11.949758544921876,0.06077786162495613,0.017117734998464584,-0.0724816545844078
1737751398455826400,11.959826416015625,0.06482773274183273,-0.0031430625822395086,-0.09565088897943497
1737751398465893600,11.9698935546875,0.058765579015016556,-0.029981069266796112,-0.11936420947313309
1737751398475961600,11.979961669921876,0.04181109741330147,-0.04983040690422058,-0.1320592314004898
1737751398486029600,11.990029541015625,0.028737904503941536,-0.04170456901192665,-0.13542626798152924
1737751398496097500,12.00009765625,0.025201493874192238,-0.00039974047103896737,-0.1377440094947815
1737751398506165500,12.01016552734375,0.03249296173453331,0.02906360849738121,-0.13795466721057892
1737751398516233700,12.020233642578125,0.036860812455415726,0.036199282854795456,-0.14334623515605927
1737751398526301700,12.0303017578125,0.032219190150499344,0.058631621301174164,-0.14969734847545624
1737751398536369700,12.04036962890625,0.029039375483989716,0.08039098232984543,-0.1537352353334427
1737751398546437600,12.050437744140625,0.03303305059671402,0.08416520804166794,-0.17355766892433167
1737751398556505600,12.060505615234375,0.04312589764595032,0.05883535370230675,-0.20333048701286316
1737751398566573600,12.070573486328126,0.05228797346353531,0.017976604402065277,-0.2512916028499603
1737751398576641500,12.0806416015625,0.04827458783984184,-0.019409118220210075,-0.3102540075778961
1737751398586709800,12.090709716796875,0.02973312884569168,-0.0633360967040062,-0.37212374806404114
1737751398596777700,12.10077783203125,0.015909990295767784,-0.1124919205904007,-0.4364132583141327
1737751398606845700,12.110845703125,0.026680612936615944,-0.17044523358345032,-0.4998258054256439
1737751398616913700,12.12091357421875,0.06469031423330307,-0.20825333893299103,-0.5691326856613159
1737751398626981600,12.130981689453124,0.12821921706199646,-0.2445189356803894,-0.627112627029419
1737751398637049600,12.141049560546875,0.18709905445575714,-0.26600852608680725,-0.6697900891304016
1737751398647117600,12.15111767578125,0.2183043658733368,-0.28065961599349976,-0.6939574480056763
1737751398657185500,12.161185546875,0.2198207825422287,-0.28307485580444336,-0.7084184288978577
1737751398667253800,12.171253662109375,0.2061648815870285,-0.26021772623062134,-0.7221699357032776
1737751398677321700,12.18132177734375,0.2039177119731903,-0.22244958579540253,-0.7516415119171143
1737751398687389700,12.1913896484375,0.2339610904455185,-0.2079547941684723,-0.7816135287284851
1737751398697457700,12.201457763671876,0.2848415970802307,-0.17858119308948517,-0.8124292492866516
1737751398707525600,12.211525634765625,0.33771491050720215,-0.12831003963947296,-0.8206695914268494
1737751398717593600,12.221593505859374,0.38856080174446106,-0.09306203573942184,-0.8168684840202332
1737751398727661600,12.23166162109375,0.4402215778827667,-0.06750447303056717,-0.819205641746521
1737751398737729500,12.2417294921875,0.4776935875415802,0.018813634291291237,-0.8054275512695312
1737751398747797800,12.2517978515625,0.48295360803604126,0.19326665997505188,-0.7419167160987854
1737751398757865700,12.26186572265625,0.4494023025035858,0.41564273834228516,-0.6098537445068359
1737751398767933700,12.27193359375,0.3955768942832947,0.6367127895355225,-0.4662958085536957
1737751398778001700,12.282001708984374,0.3590407073497772,0.7933458089828491,-0.3320018947124481
1737751398788069600,12.292069580078126,0.34407109022140503,0.8633209466934204,-0.22876687347888947
1737751398798137600,12.3021376953125,0.338916540145874,0.8457466959953308,-0.16616740822792053
1737751398808205600,12.31220556640625,0.34075385332107544,0.7205269932746887,-0.13319693505764008
1737751398818273500,12.3222734375,0.3363202214241028,0.5216509103775024,-0.13306191563606262
1737751398828341800,12.332341796875,0.32548436522483826,0.2651826739311218,-0.17612603306770325
1737751398838409700,12.34240966796875,0.3200951814651489,-0.0213023591786623,-0.2247209995985031
1737751398848477700,12.352477783203126,0.3112196624279022,-0.3134881556034088,-0.28378936648368835
1737751398858545700,12.362545654296875,0.29964396357536316,-0.5871556401252747,-0.3582281768321991
1737751398868613600,12.372613525390625,0.2912432849407196,-0.8322937488555908,-0.44000428915023804
1737751398878681600,12.382681640625,0.3106883764266968,-1.009808897972107,-0.524670422077179
1737751398888749600,12.39274951171875,0.3552752733230591,-1.1107866764068604,-0.5974703431129456
1737751398898817500,12.402817626953125,0.40356263518333435,-1.1129204034805298,-0.6224872469902039
1737751398908885800,12.4128857421875,0.4335508942604065,-0.9933473467826843,-0.576075553894043
1737751398918953700,12.42295361328125,0.4367445707321167,-0.7650068402290344,-0.5048519968986511
1737751398929021700,12.433021728515625,0.4273500144481659,-0.4588448107242584,-0.42714759707450867
1737751398939089700,12.443089599609374,0.4250900447368622,-0.1352611482143402,-0.3609943985939026
1737751398949157600,12.45315771484375,0.42860594391822815,0.17258216440677643,-0.3041068911552429
1737751398959225600,12.4632255859375,0.4191562533378601,0.46673068404197693,-0.23331554234027863
1737751398969293600,12.47329345703125,0.4007018804550171,0.7241404056549072,-0.17531029880046844
1737751398979361500,12.483361572265625,0.3859351873397827,0.8850837349891663,-0.15406493842601776
1737751398989429800,12.4934296875,0.4000028073787689,0.9504598379135132,-0.17070916295051575
1737751398999497700,12.503497802734374,0.4300198256969452,0.9091874957084656,-0.20308946073055267
1737751399009565700,12.513565673828126,0.44835808873176575,0.8598169684410095,-0.19611091911792755
1737751399019633400,12.52363330078125,0.43631526827812195,0.779308557510376,-0.25528421998023987
1737751399029701600,12.53370166015625,0.42139995098114014,0.6766152381896973,-0.28770875930786133
1737751399039769600,12.54376953125,0.4046199321746826,0.5358365178108215,-0.3914860188961029
1737751399049837600,12.553837646484375,0.3807409405708313,0.3729432225227356,-0.43946632742881775
1737751399059905500,12.563905517578124,0.36427757143974304,0.23395070433616638,-0.4989229738712311
1737751399069973800,12.573973876953126,0.3484703600406647,0.09658193588256836,-0.5632766485214233
