time,seconds_elapsed,z,y,x
1737750410031284200,0.1622841796875,-0.0996856689453125,-0.6582794189453125,-0.740966796875
1737750410041352200,0.172352294921875,-0.1040496826171875,-0.6605682373046875,-0.739593505859375
1737750410051419100,0.182419189453125,-0.1023712158203125,-0.6614837646484375,-0.7376251220703125
1737750410061487000,0.192487060546875,-0.104644775390625,-0.65966796875,-0.7365570068359375
1737750410071555300,0.202555419921875,-0.1055145263671875,-0.6559600830078125,-0.7345733642578125
1737750410081623300,0.212623291015625,-0.108062744140625,-0.6529083251953125,-0.7311553955078125
1737750410091691300,0.222691162109375,-0.110626220703125,-0.65582275390625,-0.7332763671875
1737750410101759200,0.23275927734375,-0.111663818359375,-0.656494140625,-0.734466552734375
1737750410111827500,0.242827392578125,-0.1142730712890625,-0.6508026123046875,-0.7348175048828125
1737750410121895400,0.2528955078125,-0.1145477294921875,-0.6507110595703125,-0.7380218505859375
1737750410131963100,0.262963134765625,-0.1129150390625,-0.6581268310546875,-0.7417755126953125
1737750410142031000,0.273031005859375,-0.1142730712890625,-0.664886474609375,-0.743804931640625
1737750410152099300,0.283099365234375,-0.1132965087890625,-0.6620330810546875,-0.7461090087890625
1737750410162167300,0.293167236328125,-0.1174163818359375,-0.658416748046875,-0.7497711181640625
1737750410172234200,0.303234130859375,-0.11578369140625,-0.653961181640625,-0.7531585693359375
1737750410182302200,0.31330224609375,-0.1109619140625,-0.6549072265625,-0.755096435546875
1737750410192370400,0.323370361328125,-0.1092987060546875,-0.6663055419921875,-0.756011962890625
1737750410202438400,0.3334384765625,-0.1064300537109375,-0.676727294921875,-0.7519073486328125
1737750410212506400,0.34350634765625,-0.102325439453125,-0.6707763671875,-0.744293212890625
1737750410222574300,0.35357421875,-0.1030426025390625,-0.661956787109375,-0.7370452880859375
1737750410232642300,0.363642333984375,-0.1085205078125,-0.661346435546875,-0.736053466796875
1737750410242710300,0.373710205078125,-0.1087188720703125,-0.6650848388671875,-0.7403106689453125
1737750410252778200,0.3837783203125,-0.106109619140625,-0.660125732421875,-0.7433624267578125
1737750410262846200,0.39384619140625,-0.105926513671875,-0.6519775390625,-0.740936279296875
1737750410272914400,0.40391455078125,-0.1111907958984375,-0.64984130859375,-0.73834228515625
1737750410282982400,0.413982421875,-0.109527587890625,-0.6541748046875,-0.7357177734375
1737750410293050400,0.42405029296875,-0.1069183349609375,-0.66033935546875,-0.7307586669921875
1737750410303117300,0.434117431640625,-0.1024322509765625,-0.6634674072265625,-0.727386474609375
1737750410313185300,0.444185302734375,-0.10882568359375,-0.6730804443359375,-0.7364959716796875
1737750410323253500,0.45425341796875,-0.1052398681640625,-0.6727752685546875,-0.7377777099609375
1737750410333321200,0.4643212890625,-0.09320068359375,-0.666473388671875,-0.7357177734375
1737750410343389200,0.47438916015625,-0.1025390625,-0.6649169921875,-0.7418212890625
1737750410353457200,0.48445703125,-0.1056976318359375,-0.66302490234375,-0.7429046630859375
1737750410363525400,0.494525390625,-0.1032562255859375,-0.654144287109375,-0.7289581298828125
1737750410373593300,0.50459326171875,-0.101593017578125,-0.651611328125,-0.720458984375
1737750410383661300,0.514661376953125,-0.1036834716796875,-0.6547088623046875,-0.7179412841796875
1737750410393728500,0.524728515625,-0.10064697265625,-0.6598663330078125,-0.716217041015625
1737750410403796700,0.534796630859375,-0.092010498046875,-0.6654205322265625,-0.7187957763671875
1737750410413864700,0.54486474609375,-0.090911865234375,-0.6714324951171875,-0.73150634765625
1737750410423931600,0.554931640625,-0.094879150390625,-0.664794921875,-0.7208709716796875
1737750410433999600,0.56499951171875,-0.09588623046875,-0.665435791015625,-0.727630615234375
1737750410444067600,0.575067626953125,-0.0843963623046875,-0.6734161376953125,-0.7247772216796875
1737750410454135600,0.585135498046875,-0.0946044921875,-0.6825714111328125,-0.7457122802734375
1737750410464203500,0.59520361328125,-0.0913848876953125,-0.6808929443359375,-0.72064208984375
1737750410474271500,0.605271484375,-0.0866546630859375,-0.68536376953125,-0.707305908203125
1737750410484339500,0.61533935546875,-0.0722503662109375,-0.6826019287109375,-0.71966552734375
1737750410494407700,0.62540771484375,-0.0626678466796875,-0.6754150390625,-0.730194091796875
1737750410504475600,0.6354755859375,-0.07562255859375,-0.6922607421875,-0.749237060546875
1737750410514543600,0.645543701171875,-0.0659942626953125,-0.68927001953125,-0.759613037109375
1737750410524611600,0.655611572265625,-0.059112548828125,-0.671173095703125,-0.738922119140625
1737750410534679600,0.665679443359375,-0.056396484375,-0.66864013671875,-0.734130859375
1737750410544747500,0.67574755859375,-0.055389404296875,-0.6771697998046875,-0.7445831298828125
1737750410554814500,0.685814453125,-0.065673828125,-0.677215576171875,-0.745452880859375
1737750410564882400,0.69588232421875,-0.0716094970703125,-0.6881866455078125,-0.7734222412109375
1737750410574950400,0.705950439453125,-0.064178466796875,-0.6764984130859375,-0.7369232177734375
1737750410585018600,0.7160185546875,-0.0604095458984375,-0.6659088134765625,-0.723052978515625
1737750410595086600,0.726086669921875,-0.061248779296875,-0.6656036376953125,-0.719573974609375
1737750410605154600,0.736154541015625,-0.059906005859375,-0.6760406494140625,-0.7215728759765625
1737750410615222500,0.746222412109375,-0.0627899169921875,-0.6909942626953125,-0.74993896484375
1737750410625290800,0.756290771484375,-0.0682220458984375,-0.6890869140625,-0.7353363037109375
1737750410635358500,0.7663583984375,-0.0716400146484375,-0.681915283203125,-0.726043701171875
1737750410645426400,0.776426513671875,-0.0637359619140625,-0.6855926513671875,-0.7222442626953125
1737750410655494400,0.786494384765625,-0.0671844482421875,-0.6938934326171875,-0.7185821533203125
1737750410665562600,0.796562744140625,-0.0661468505859375,-0.696990966796875,-0.7177581787109375
1737750410675630600,0.806630615234375,-0.0749664306640625,-0.6922149658203125,-0.6990814208984375
1737750410685697500,0.816697509765625,-0.0758056640625,-0.681884765625,-0.6774444580078125
1737750410695765500,0.826765625,-0.0790863037109375,-0.6886444091796875,-0.687103271484375
1737750410705833700,0.836833740234375,-0.078155517578125,-0.694915771484375,-0.6854705810546875
1737750410715901700,0.846901611328125,-0.0724334716796875,-0.6995391845703125,-0.7109222412109375
1737750410725969700,0.8569697265625,-0.075103759765625,-0.711273193359375,-0.7589569091796875
1737750410736037400,0.867037353515625,-0.06695556640625,-0.7130126953125,-0.779266357421875
1737750410746105600,0.877105712890625,-0.057525634765625,-0.703948974609375,-0.6893310546875
1737750410756173600,0.887173583984375,-0.051605224609375,-0.6960296630859375,-0.686370849609375
1737750410766241500,0.897241455078125,-0.054046630859375,-0.6940155029296875,-0.712127685546875
1737750410776309500,0.9073095703125,-0.056640625,-0.69622802734375,-0.7313995361328125
1737750410786377700,0.917377685546875,-0.0611724853515625,-0.7012176513671875,-0.7501983642578125
1737750410796445700,0.92744580078125,-0.04705810546875,-0.69256591796875,-0.7316131591796875
1737750410806513700,0.937513671875,-0.033660888671875,-0.681488037109375,-0.7227630615234375
1737750410816580600,0.94758056640625,-0.03271484375,-0.6828765869140625,-0.712432861328125
1737750410826648600,0.957648681640625,-0.034271240234375,-0.695770263671875,-0.7402801513671875
1737750410836716500,0.967716552734375,-0.0356292724609375,-0.7065582275390625,-0.760101318359375
1737750410846784500,0.977784423828125,-0.036651611328125,-0.7068023681640625,-0.763763427734375
1737750410856852500,0.9878525390625,-0.034210205078125,-0.701080322265625,-0.7707366943359375
1737750410866920400,0.99792041015625,-0.032928466796875,-0.687286376953125,-0.7598419189453125
1737750410876988700,1.00798876953125,-0.034576416015625,-0.6805572509765625,-0.751617431640625
1737750410887056600,1.018056640625,-0.0371551513671875,-0.6825408935546875,-0.7506256103515625
1737750410897124600,1.02812451171875,-0.0357513427734375,-0.6809539794921875,-0.728790283203125
1737750410907192600,1.038192626953125,-0.03546142578125,-0.67926025390625,-0.723724365234375
1737750410917260500,1.048260498046875,-0.03680419921875,-0.6747283935546875,-0.7238616943359375
1737750410927328500,1.05832861328125,-0.038665771484375,-0.6685943603515625,-0.7174224853515625
1737750410937395500,1.0683955078125,-0.035919189453125,-0.670684814453125,-0.7074432373046875
1737750410947463400,1.07846337890625,-0.036346435546875,-0.68048095703125,-0.7269134521484375
1737750410957531400,1.088531494140625,-0.0376739501953125,-0.675628662109375,-0.7117919921875
1737750410967599600,1.098599609375,-0.037139892578125,-0.66864013671875,-0.690460205078125
1737750410977667600,1.10866748046875,-0.0408172607421875,-0.6724395751953125,-0.7193603515625
1737750410987735600,1.118735595703125,-0.0362701416015625,-0.677001953125,-0.7386627197265625
1737750410997803500,1.128803466796875,-0.0307159423828125,-0.6799163818359375,-0.745880126953125
1737750411007871700,1.138871826171875,-0.0287628173828125,-0.6874847412109375,-0.7599945068359375
1737750411017939500,1.148939453125,-0.031524658203125,-0.6779632568359375,-0.7418212890625
1737750411028007400,1.15900732421875,-0.0332794189453125,-0.6702423095703125,-0.7184295654296875
1737750411038075400,1.169075439453125,-0.03790283203125,-0.6727752685546875,-0.73162841796875
1737750411048143600,1.1791435546875,-0.0388031005859375,-0.6797943115234375,-0.7532958984375
1737750411058211600,1.189211669921875,-0.040283203125,-0.672027587890625,-0.705322265625
1737750411068278500,1.199278564453125,-0.04278564453125,-0.6783294677734375,-0.6887054443359375
1737750411078346500,1.209346435546875,-0.047393798828125,-0.6909027099609375,-0.711639404296875
1737750411088414700,1.219414794921875,-0.044219970703125,-0.6963348388671875,-0.72369384765625
1737750411098482700,1.229482666015625,-0.040557861328125,-0.6925506591796875,-0.7201080322265625
1737750411108550700,1.239550537109375,-0.033538818359375,-0.6832427978515625,-0.7118072509765625
1737750411118618400,1.249618408203125,-0.029876708984375,-0.676422119140625,-0.71270751953125
1737750411128686600,1.2596865234375,-0.027587890625,-0.6726531982421875,-0.7131195068359375
1737750411138754600,1.269754638671875,-0.0249786376953125,-0.6725616455078125,-0.711700439453125
1737750411148822500,1.279822509765625,-0.025970458984375,-0.6772918701171875,-0.7073516845703125
1737750411158890500,1.289890380859375,-0.023956298828125,-0.6875762939453125,-0.703887939453125
1737750411168958700,1.299958740234375,-0.0103302001953125,-0.6958770751953125,-0.7098541259765625
1737750411179026700,1.310026611328125,-0.011688232421875,-0.6973876953125,-0.7228851318359375
1737750411189093600,1.32009375,-0.0126190185546875,-0.6981201171875,-0.7309722900390625
1737750411199161600,1.33016162109375,-0.011749267578125,-0.6949920654296875,-0.7283935546875
1737750411209229600,1.3402294921875,-0.01788330078125,-0.679107666015625,-0.6819610595703125
1737750411219297500,1.350297607421875,-0.0216064453125,-0.67498779296875,-0.680938720703125
1737750411229365500,1.360365478515625,-0.02044677734375,-0.6890411376953125,-0.716583251953125
1737750411239433500,1.37043359375,-0.0229949951171875,-0.7069244384765625,-0.7516937255859375
1737750411249501400,1.38050146484375,-0.027435302734375,-0.7173919677734375,-0.769287109375
1737750411259569700,1.390569580078125,-0.0225372314453125,-0.7178192138671875,-0.7564849853515625
1737750411269637600,1.4006376953125,-0.0086822509765625,-0.7090301513671875,-0.726959228515625
1737750411279705600,1.41070556640625,0.0008544921875,-0.70245361328125,-0.7076263427734375
1737750411289773600,1.420773681640625,0.001953125,-0.7066192626953125,-0.7135467529296875
1737750411299840500,1.430840576171875,0.0040130615234375,-0.71820068359375,-0.7385406494140625
1737750411309908700,1.44090869140625,0.0040740966796875,-0.723358154296875,-0.752227783203125
1737750411319976400,1.4509765625,0.000701904296875,-0.7189788818359375,-0.7498779296875
1737750411330044400,1.46104443359375,-0.003875732421875,-0.7120513916015625,-0.74737548828125
1737750411340112400,1.4711123046875,-0.007080078125,-0.7033233642578125,-0.7440185546875
1737750411350180600,1.4811806640625,-0.013092041015625,-0.6976776123046875,-0.7343292236328125
1737750411360248600,1.49124853515625,-0.018890380859375,-0.7038116455078125,-0.721282958984375
1737750411370316500,1.501316650390625,-0.0231781005859375,-0.7130279541015625,-0.708984375
1737750411380384500,1.511384521484375,-0.0253143310546875,-0.7185211181640625,-0.6977386474609375
1737750411390452500,1.521452392578125,-0.0277099609375,-0.718597412109375,-0.696319580078125
1737750411400520400,1.5315205078125,-0.0292510986328125,-0.7125396728515625,-0.6979827880859375
1737750411410588200,1.541588134765625,-0.029510498046875,-0.69879150390625,-0.690460205078125
1737750411420655400,1.5516552734375,-0.0289459228515625,-0.6898651123046875,-0.6725616455078125
1737750411430723300,1.561723388671875,-0.0291900634765625,-0.7050628662109375,-0.6743316650390625
1737750411440791300,1.571791259765625,-0.028594970703125,-0.720916748046875,-0.6940460205078125
1737750411450859300,1.581859375,-0.021881103515625,-0.7205810546875,-0.708343505859375
1737750411460927200,1.59192724609375,-0.0194549560546875,-0.70599365234375,-0.7144775390625
1737750411470995500,1.601995361328125,-0.0183563232421875,-0.690032958984375,-0.7155914306640625
1737750411481063400,1.6120634765625,-0.0159454345703125,-0.689056396484375,-0.7286529541015625
1737750411491131400,1.62213134765625,-0.011993408203125,-0.6990966796875,-0.7391204833984375
1737750411501199400,1.632199462890625,-0.0131683349609375,-0.7118377685546875,-0.7447662353515625
1737750411511267300,1.642267333984375,-0.0130157470703125,-0.7162628173828125,-0.742828369140625
1737750411521335300,1.652335205078125,-0.0140380859375,-0.713836669921875,-0.7358245849609375
1737750411531402200,1.66240234375,-0.0155792236328125,-0.704742431640625,-0.7149200439453125
1737750411541470200,1.67247021484375,-0.02398681640625,-0.6968994140625,-0.6832275390625
1737750411551538400,1.682538330078125,-0.025970458984375,-0.6941070556640625,-0.658203125
1737750411561606400,1.6926064453125,-0.0262603759765625,-0.69525146484375,-0.644378662109375
1737750411571674400,1.70267431640625,-0.02520751953125,-0.699920654296875,-0.6514739990234375
1737750411581742300,1.712742431640625,-0.0205230712890625,-0.705963134765625,-0.6627349853515625
1737750411591810600,1.722810546875,-0.0135040283203125,-0.711334228515625,-0.683349609375
1737750411601878500,1.73287841796875,-0.00616455078125,-0.7110748291015625,-0.700592041015625
1737750411611946200,1.7429462890625,-0.0026702880859375,-0.7092132568359375,-0.7169952392578125
1737750411622014200,1.75301416015625,-0.000213623046875,-0.702239990234375,-0.7331695556640625
1737750411632082400,1.76308251953125,0.0010528564453125,-0.6964874267578125,-0.7456817626953125
1737750411642150400,1.773150390625,0.0002593994140625,-0.695037841796875,-0.7483062744140625
1737750411652217300,1.78321728515625,0.0004730224609375,-0.691925048828125,-0.7393035888671875
1737750411662285300,1.793285400390625,-0.002471923828125,-0.6895751953125,-0.719085693359375
1737750411672353300,1.803353271484375,-0.0063934326171875,-0.69366455078125,-0.69622802734375
1737750411682421500,1.81342138671875,-0.0098724365234375,-0.703521728515625,-0.688262939453125
1737750411692489500,1.823489501953125,-0.01068115234375,-0.714019775390625,-0.6945953369140625
1737750411702557400,1.833557373046875,-0.0120849609375,-0.721588134765625,-0.7036285400390625
1737750411712625200,1.843625244140625,-0.0095367431640625,-0.719146728515625,-0.7119903564453125
1737750411722693400,1.853693359375,-0.00396728515625,-0.7124176025390625,-0.7114410400390625
1737750411732761300,1.86376123046875,-0.0004730224609375,-0.704986572265625,-0.707183837890625
1737750411742829300,1.873829345703125,0.0021209716796875,-0.700042724609375,-0.7045135498046875
1737750411752897300,1.883897216796875,0.0045623779296875,-0.7013702392578125,-0.7099456787109375
1737750411762964200,1.893964111328125,0.008026123046875,-0.7045440673828125,-0.715545654296875
1737750411773032400,1.904032470703125,0.0112152099609375,-0.7102813720703125,-0.7232666015625
1737750411783100400,1.914100341796875,0.0134429931640625,-0.714447021484375,-0.7387847900390625
1737750411793168400,1.92416845703125,0.0169677734375,-0.7091522216796875,-0.750274658203125
1737750411803236400,1.934236328125,0.0188751220703125,-0.6949005126953125,-0.7425537109375
1737750411813304300,1.94430419921875,0.015960693359375,-0.686004638671875,-0.726959228515625
1737750411823372300,1.954372314453125,0.0148773193359375,-0.6881561279296875,-0.717864990234375
1737750411833440300,1.964440185546875,0.0116729736328125,-0.695709228515625,-0.717376708984375
1737750411843508200,1.97450830078125,0.005340576171875,-0.7021331787109375,-0.7171478271484375
1737750411853576400,1.984576416015625,0.00335693359375,-0.7068939208984375,-0.715240478515625
1737750411863644400,1.99464453125,0.009033203125,-0.706329345703125,-0.712921142578125
1737750411873711400,2.00471142578125,0.010406494140625,-0.700653076171875,-0.7060394287109375
1737750411883779300,2.014779296875,0.0106201171875,-0.6976776123046875,-0.69488525390625
1737750411893847600,2.02484765625,0.0046844482421875,-0.69891357421875,-0.6854705810546875
1737750411903915500,2.03491552734375,0.011810302734375,-0.7002410888671875,-0.6851806640625
1737750411913983200,2.044983154296875,0.0030975341796875,-0.6944580078125,-0.6838836669921875
1737750411924051200,2.05505126953125,-0.00762939453125,-0.6927337646484375,-0.67529296875
1737750411934119400,2.065119384765625,-0.001708984375,-0.70263671875,-0.6807098388671875
1737750411944187400,2.0751875,0.0007476806640625,-0.71466064453125,-0.70068359375
1737750411954255400,2.08525537109375,-0.002960205078125,-0.717529296875,-0.7168731689453125
1737750411964323300,2.0953232421875,-0.0012054443359375,-0.71044921875,-0.7204742431640625
1737750411974391600,2.1053916015625,0.0022125244140625,-0.7014923095703125,-0.715850830078125
1737750411984458500,2.11545849609375,0.0013885498046875,-0.696197509765625,-0.7107086181640625
1737750411994526500,2.1255263671875,0.0002593994140625,-0.69775390625,-0.7148895263671875
1737750412004594400,2.135594482421875,0.0013885498046875,-0.7057647705078125,-0.72283935546875
1737750412014662100,2.145662109375,0.0023040771484375,-0.7111663818359375,-0.7288360595703125
1737750412024730400,2.15573046875,0.0063323974609375,-0.710296630859375,-0.7320556640625
1737750412034798300,2.16579833984375,0.0102996826171875,-0.7077484130859375,-0.7285919189453125
1737750412044866300,2.1758662109375,0.0081634521484375,-0.7064361572265625,-0.726043701171875
1737750412054934300,2.185934326171875,0.0074005126953125,-0.7067108154296875,-0.72589111328125
1737750412065002500,2.19600244140625,0.0094146728515625,-0.706512451171875,-0.7228851318359375
1737750412075070500,2.206070556640625,0.0072021484375,-0.7043914794921875,-0.712860107421875
1737750412085138400,2.216138427734375,-0.0051116943359375,-0.702667236328125,-0.703399658203125
1737750412095205400,2.226205322265625,-0.0287933349609375,-0.6985931396484375,-0.7009124755859375
1737750412105273300,2.2362734375,-0.0473175048828125,-0.6917724609375,-0.6991424560546875
1737750412115341300,2.24634130859375,-0.046966552734375,-0.6890106201171875,-0.694000244140625
1737750412125409300,2.2564091796875,-0.0389862060546875,-0.6881256103515625,-0.686676025390625
1737750412135477200,2.266477294921875,-0.0400848388671875,-0.683502197265625,-0.6759490966796875
1737750412145545200,2.276545166015625,-0.0419158935546875,-0.6745147705078125,-0.6585540771484375
1737750412155613400,2.286613525390625,-0.05645751953125,-0.6670379638671875,-0.6434173583984375
1737750412165681400,2.296681396484375,-0.06500244140625,-0.6571044921875,-0.627166748046875
1737750412175749400,2.306749267578125,-0.034210205078125,-0.6470947265625,-0.60968017578125
1737750412185817300,2.3168173828125,-0.0088958740234375,-0.6414947509765625,-0.5998077392578125
1737750412195885300,2.32688525390625,-0.0252227783203125,-0.6436614990234375,-0.5995635986328125
1737750412205952500,2.336952392578125,-0.069183349609375,-0.6543121337890625,-0.614227294921875
1737750412216020200,2.347020263671875,-0.106414794921875,-0.6680145263671875,-0.6239471435546875
1737750412226088200,2.357088134765625,-0.105865478515625,-0.6823883056640625,-0.6284027099609375
1737750412236156400,2.367156494140625,-0.07098388671875,-0.67681884765625,-0.617828369140625
1737750412246224400,2.377224365234375,-0.05865478515625,-0.667083740234375,-0.6041259765625
1737750412256292400,2.387292236328125,-0.062103271484375,-0.6646270751953125,-0.594085693359375
1737750412266360300,2.3973603515625,-0.03924560546875,-0.67657470703125,-0.592498779296875
1737750412276428500,2.407428466796875,0.023895263671875,-0.7152252197265625,-0.663848876953125
1737750412286496500,2.41749658203125,0.108612060546875,-0.7679901123046875,-0.85986328125
1737750412296564200,2.427564208984375,0.119354248046875,-0.761993408203125,-0.951873779296875
1737750412306631400,2.43763134765625,0.1742401123046875,-0.6988677978515625,-0.9589385986328125
1737750412316699400,2.447699462890625,0.1457366943359375,-0.6047210693359375,-0.878631591796875
1737750412326767400,2.457767333984375,0.1533203125,-0.514862060546875,-0.7779541015625
1737750412336835300,2.46783544921875,0.136138916015625,-0.4699859619140625,-0.710693359375
1737750412346903300,2.4779033203125,0.1444244384765625,-0.4882965087890625,-0.6851959228515625
1737750412356971300,2.48797119140625,0.1670684814453125,-0.5380706787109375,-0.7282562255859375
1737750412367039500,2.49803955078125,0.1815338134765625,-0.5913848876953125,-0.8238067626953125
1737750412377107500,2.508107421875,0.2200469970703125,-0.6776580810546875,-0.87945556640625
1737750412387175400,2.518175537109375,0.2035675048828125,-0.7285614013671875,-0.92889404296875
1737750412397243600,2.52824365234375,0.1839447021484375,-0.73345947265625,-0.977783203125
1737750412407311600,2.5383115234375,0.149139404296875,-0.7516326904296875,-0.958740234375
1737750412417378600,2.548378662109375,0.12982177734375,-0.7760162353515625,-0.87762451171875
1737750412427446500,2.558446533203125,0.1085968017578125,-0.761505126953125,-0.8339385986328125
1737750412437514800,2.5685146484375,0.0667724609375,-0.80242919921875,-0.7860870361328125
1737750412447582700,2.578582763671875,0.012420654296875,-0.8328094482421875,-0.8013153076171875
1737750412457650700,2.588650634765625,-0.0343017578125,-0.83251953125,-0.8131561279296875
1737750412467718700,2.59871875,-0.0181732177734375,-0.8016510009765625,-0.7735595703125
1737750412477787000,2.608786865234375,-0.0102081298828125,-0.77374267578125,-0.7732086181640625
1737750412487854600,2.6188544921875,0.006439208984375,-0.7664642333984375,-0.8118438720703125
1737750412497922600,2.628922607421875,0.025146484375,-0.7728424072265625,-0.8578338623046875
1737750412507990500,2.638990478515625,0.03839111328125,-0.7884979248046875,-0.8933258056640625
1737750412518057500,2.649057373046875,0.0428619384765625,-0.8078460693359375,-0.9040069580078125
1737750412528125700,2.659125732421875,0.051971435546875,-0.82293701171875,-0.877166748046875
1737750412538193700,2.669193603515625,0.061553955078125,-0.8318634033203125,-0.8186798095703125
1737750412548261600,2.67926171875,0.08489990234375,-0.8363189697265625,-0.7490081787109375
1737750412558329600,2.68932958984375,0.10223388671875,-0.8409576416015625,-0.682373046875
1737750412568397800,2.699397705078125,0.1085968017578125,-0.8480224609375,-0.6269073486328125
1737750412578465800,2.7094658203125,0.106842041015625,-0.853851318359375,-0.579315185546875
1737750412588533800,2.71953369140625,0.0975341796875,-0.857879638671875,-0.5357208251953125
1737750412598601500,2.7296015625,0.07177734375,-0.852935791015625,-0.4938812255859375
1737750412608669700,2.739669677734375,0.0352935791015625,-0.8340606689453125,-0.4613189697265625
1737750412618737700,2.749737548828125,0.01385498046875,-0.7903900146484375,-0.438232421875
1737750412628804600,2.7598046875,-0.0054931640625,-0.7242279052734375,-0.4364471435546875
1737750412638872600,2.76987255859375,-0.005096435546875,-0.6596832275390625,-0.4644317626953125
1737750412648940500,2.7799404296875,0.0088653564453125,-0.611907958984375,-0.5199737548828125
1737750412659008800,2.7900087890625,0.02801513671875,-0.5889739990234375,-0.59259033203125
1737750412669076700,2.80007666015625,0.05322265625,-0.590545654296875,-0.673187255859375
1737750412679144700,2.810144775390625,0.0678253173828125,-0.60638427734375,-0.7464447021484375
1737750412689212700,2.820212646484375,0.0746002197265625,-0.6230010986328125,-0.8022003173828125
1737750412699280600,2.83028076171875,0.10589599609375,-0.632720947265625,-0.83740234375
1737750412709348600,2.8403486328125,0.105712890625,-0.6436309814453125,-0.859161376953125
1737750412719415600,2.85041552734375,0.097412109375,-0.65771484375,-0.871246337890625
1737750412729483500,2.8604833984375,0.0784454345703125,-0.669647216796875,-0.87542724609375
1737750412739551700,2.8705517578125,0.0474395751953125,-0.6819305419921875,-0.8758392333984375
1737750412749619700,2.88061962890625,0.0433502197265625,-0.68994140625,-0.8724822998046875
1737750412759687700,2.890687744140625,0.0380859375,-0.68927001953125,-0.8639984130859375
1737750412769755600,2.900755615234375,0.0211334228515625,-0.6828460693359375,-0.8523712158203125
1737750412779823900,2.910823974609375,0.006256103515625,-0.6768341064453125,-0.8373565673828125
1737750412789891800,2.920891845703125,-0.0136871337890625,-0.679229736328125,-0.825927734375
1737750412799959600,2.93095947265625,-0.027923583984375,-0.69036865234375,-0.8151702880859375
1737750412810027500,2.941027587890625,-0.009796142578125,-0.70977783203125,-0.8036346435546875
1737750412820095700,2.951095703125,0.01055908203125,-0.741943359375,-0.7968902587890625
1737750412830162700,2.96116259765625,0.0089569091796875,-0.7985382080078125,-0.7951507568359375
1737750412840230700,2.971230712890625,0.0047454833984375,-0.8599700927734375,-0.7908935546875
1737750412850298600,2.981298583984375,-0.0386199951171875,-0.9068603515625,-0.7767486572265625
1737750412860366600,2.99136669921875,-0.1071014404296875,-0.9262847900390625,-0.7498626708984375
1737750412870434800,3.001434814453125,-0.1339263916015625,-0.8975982666015625,-0.707366943359375
1737750412880502800,3.011502685546875,-0.127716064453125,-0.831573486328125,-0.6674041748046875
1737750412890570800,3.02157080078125,-0.1206512451171875,-0.7810211181640625,-0.669891357421875
1737750412900638500,3.031638427734375,-0.1128692626953125,-0.777008056640625,-0.7241363525390625
1737750412910706700,3.041706787109375,-0.1202545166015625,-0.8004150390625,-0.7963714599609375
1737750412920774700,3.051774658203125,-0.1555938720703125,-0.839874267578125,-0.85052490234375
1737750412930841600,3.061841552734375,-0.23089599609375,-0.92626953125,-0.8780364990234375
1737750412940909600,3.07190966796875,-0.257232666015625,-0.931427001953125,-0.8773651123046875
1737750412950977500,3.0819775390625,-0.284271240234375,-0.8383636474609375,-0.8238983154296875
1737750412961045800,3.092045654296875,-0.3249664306640625,-0.768524169921875,-0.8045654296875
1737750412971113700,3.10211376953125,-0.3158111572265625,-0.7851409912109375,-0.80169677734375
1737750412981181700,3.112181640625,-0.29632568359375,-0.7637939453125,-0.828277587890625
1737750412991250000,3.12225,-0.3795318603515625,-0.70001220703125,-0.83050537109375
1737750413001317600,3.132317626953125,-0.3871002197265625,-0.6337432861328125,-0.7963409423828125
1737750413011385600,3.142385498046875,-0.34881591796875,-0.6021575927734375,-0.8059844970703125
1737750413021453600,3.15245361328125,-0.3096160888671875,-0.5674285888671875,-0.8253021240234375
1737750413031520500,3.1625205078125,-0.3278045654296875,-0.567230224609375,-0.8557891845703125
1737750413041588700,3.172588623046875,-0.2970123291015625,-0.59234619140625,-0.87493896484375
1737750413051656700,3.18265673828125,-0.2566070556640625,-0.623931884765625,-0.8829803466796875
1737750413061724700,3.192724609375,-0.2578125,-0.6575164794921875,-0.848602294921875
1737750413071792600,3.202792724609375,-0.2490997314453125,-0.625335693359375,-0.7652130126953125
1737750413081860900,3.21286083984375,-0.245147705078125,-0.6094818115234375,-0.6905670166015625
1737750413091928800,3.2229287109375,-0.2860565185546875,-0.5942535400390625,-0.65673828125
1737750413101996500,3.23299658203125,-0.331146240234375,-0.5761260986328125,-0.6530914306640625
1737750413112064500,3.243064453125,-0.3826141357421875,-0.59417724609375,-0.6632232666015625
1737750413122132700,3.2531328125,-0.4406890869140625,-0.5968170166015625,-0.645721435546875
1737750413132199700,3.26319970703125,-0.46929931640625,-0.5365142822265625,-0.6089324951171875
1737750413142267600,3.273267578125,-0.480133056640625,-0.4913330078125,-0.60986328125
1737750413152335600,3.283335693359375,-0.4723663330078125,-0.517669677734375,-0.6502685546875
1737750413162403600,3.293403564453125,-0.4692230224609375,-0.5803070068359375,-0.6887054443359375
1737750413172471800,3.303471923828125,-0.5237274169921875,-0.6444091796875,-0.7143402099609375
1737750413182539800,3.313539794921875,-0.5542144775390625,-0.6724090576171875,-0.7298583984375
1737750413192607700,3.323607666015625,-0.540191650390625,-0.6657562255859375,-0.7272796630859375
1737750413202675500,3.333675537109375,-0.5326385498046875,-0.6134185791015625,-0.737548828125
1737750413212743700,3.34374365234375,-0.5136871337890625,-0.519805908203125,-0.74554443359375
1737750413222810600,3.353810546875,-0.4738922119140625,-0.420196533203125,-0.7183685302734375
1737750413232878600,3.363878662109375,-0.43115234375,-0.32879638671875,-0.646453857421875
1737750413242946600,3.373946533203125,-0.3932037353515625,-0.23553466796875,-0.5855865478515625
1737750413253014500,3.3840146484375,-0.399444580078125,-0.157012939453125,-0.585906982421875
1737750413263082800,3.394082763671875,-0.409576416015625,-0.15545654296875,-0.629425048828125
1737750413273150700,3.404150634765625,-0.435516357421875,-0.20672607421875,-0.701934814453125
1737750413283218700,3.41421875,-0.461669921875,-0.264984130859375,-0.7592010498046875
1737750413293287000,3.424286865234375,-0.48284912109375,-0.2940826416015625,-0.79339599609375
1737750413303354600,3.434354736328125,-0.534759521484375,-0.3271484375,-0.762420654296875
1737750413313422600,3.444422607421875,-0.435028076171875,-0.181182861328125,-0.6656341552734375
1737750413323489800,3.45448974609375,-0.382537841796875,-0.09088134765625,-0.608673095703125
1737750413333557500,3.4645576171875,-0.376434326171875,-0.0491790771484375,-0.5555267333984375
1737750413343625700,3.474625732421875,-0.346160888671875,-0.0018310546875,-0.555267333984375
1737750413353693700,3.484693603515625,-0.321075439453125,0.0077667236328125,-0.61480712890625
1737750413363761700,3.49476171875,-0.3101348876953125,-0.0057525634765625,-0.685577392578125
1737750413373829600,3.50482958984375,-0.3099365234375,-0.02685546875,-0.747894287109375
1737750413383897900,3.51489794921875,-0.300018310546875,-0.05731201171875,-0.782135009765625
1737750413393966000,3.524966064453125,-0.2750244140625,-0.09173583984375,-0.8025054931640625
1737750413404034000,3.535033935546875,-0.269073486328125,-0.137481689453125,-0.8111419677734375
1737750413414102000,3.54510205078125,-0.2825927734375,-0.20562744140625,-0.7958831787109375
1737750413424169000,3.5551689453125,-0.2976226806640625,-0.2511138916015625,-0.75408935546875
1737750413434237000,3.56523681640625,-0.328216552734375,-0.208953857421875,-0.7213287353515625
1737750413444305200,3.57530517578125,-0.3398895263671875,-0.0780487060546875,-0.7039642333984375
1737750413454373000,3.585373046875,-0.3354644775390625,0.08941650390625,-0.7050323486328125
1737750413464441000,3.595441162109375,-0.3072967529296875,0.2286224365234375,-0.7277374267578125
1737750413474509000,3.605509033203125,-0.2754364013671875,0.28857421875,-0.785552978515625
1737750413484577300,3.615577392578125,-0.24609375,0.2591094970703125,-0.840667724609375
1737750413494645000,3.62564501953125,-0.1996307373046875,0.187774658203125,-0.8853302001953125
1737750413504713000,3.635712890625,-0.1340179443359375,0.085113525390625,-0.945281982421875
1737750413514780200,3.6457802734375,-0.2091522216796875,-0.125732421875,-0.940582275390625
1737750413524847900,3.655847900390625,-0.1711578369140625,-0.220703125,-0.8643951416015625
1737750413534916000,3.665916015625,-0.149993896484375,-0.20172119140625,-0.82415771484375
1737750413544984000,3.675984130859375,-0.238067626953125,-0.1708221435546875,-0.857513427734375
1737750413555052000,3.686052001953125,-0.2811431884765625,-0.146636962890625,-0.8789215087890625
1737750413565120000,3.6961201171875,-0.364349365234375,-0.1204681396484375,-0.8960418701171875
1737750413575188200,3.706188232421875,-0.3870849609375,-0.138916015625,-0.8480987548828125
1737750413585256200,3.716256103515625,-0.387420654296875,-0.091522216796875,-0.7436370849609375
1737750413595324200,3.72632421875,-0.439697265625,-0.0473480224609375,-0.6624908447265625
1737750413605391000,3.73639111328125,-0.5320281982421875,-0.013885498046875,-0.55859375
1737750413615459300,3.746459228515625,-0.4522857666015625,0.102996826171875,-0.498565673828125
1737750413625527000,3.756527099609375,-0.40606689453125,0.17730712890625,-0.6412811279296875
1737750413635595000,3.766594970703125,-0.3253326416015625,0.1437835693359375,-0.8829803466796875
1737750413645663000,3.7766630859375,-0.2184906005859375,0.102264404296875,-1.0920867919921875
1737750413655731200,3.786731201171875,-0.136138916015625,0.048583984375,-1.2521209716796875
1737750413665799200,3.796799072265625,-0.082916259765625,-0.0048980712890625,-1.3355712890625
1737750413675867100,3.8068671875,-0.0751953125,-0.0300445556640625,-1.315032958984375
1737750413685935000,3.81693505859375,-0.0855712890625,-0.0560455322265625,-1.2559814453125
1737750413696002000,3.827001953125,-0.094970703125,-0.0408172607421875,-1.2373199462890625
1737750413706070300,3.8370703125,-0.04095458984375,0.01434326171875,-1.271392822265625
1737750413716138200,3.84713818359375,0.016754150390625,0.037872314453125,-1.3378753662109375
1737750413726206000,3.8572060546875,0.0362548828125,0.0247802734375,-1.3576507568359375
1737750413736274000,3.86727392578125,0.0643768310546875,0.015777587890625,-1.3285980224609375
1737750413746342100,3.877342041015625,0.086212158203125,0.0264892578125,-1.255584716796875
1737750413756410000,3.88741015625,0.1094818115234375,0.0524139404296875,-1.1542205810546875
1737750413766478000,3.89747802734375,0.083282470703125,0.058563232421875,-1.066131591796875
1737750413776546000,3.907546142578125,0.048583984375,0.062103271484375,-0.9662628173828125
1737750413786614300,3.9176142578125,0.0620574951171875,0.059417724609375,-0.8821868896484375
1737750413796681200,3.92768115234375,0.0635986328125,0.0023193359375,-0.8515777587890625
1737750413806749200,3.937749267578125,0.018310546875,-0.1032257080078125,-0.85369873046875
1737750413816817200,3.947817138671875,-0.0318450927734375,-0.1844940185546875,-0.8390045166015625
1737750413826884900,3.957884765625,-0.0562896728515625,-0.2611846923828125,-0.8020172119140625
1737750413836953000,3.967953125,-0.0720367431640625,-0.368133544921875,-0.8065338134765625
1737750413847021000,3.97802099609375,-0.105682373046875,-0.5413818359375,-0.9072723388671875
1737750413857089000,3.988089111328125,-0.14031982421875,-0.680389404296875,-0.9853057861328125
1737750413867157000,3.998156982421875,-0.16973876953125,-0.8766632080078125,-1.062042236328125
1737750413877225200,4.00822509765625,-0.1678009033203125,-1.008331298828125,-1.077117919921875
1737750413887293200,4.018293212890625,-0.1422119140625,-0.9954833984375,-1.077880859375
1737750413897360100,4.028360107421875,-0.1526947021484375,-0.87255859375,-1.0808563232421875
1737750413907428000,4.038427978515625,-0.1578369140625,-0.64202880859375,-1.0159759521484375
1737750413917496300,4.048496337890625,-0.1503448486328125,-0.45648193359375,-0.936737060546875
1737750413927564000,4.05856396484375,-0.1206207275390625,-0.3465728759765625,-0.8916015625
1737750413937632000,4.068632080078125,-0.0902862548828125,-0.276397705078125,-0.8693695068359375
1737750413947700000,4.078699951171875,-0.071563720703125,-0.2569580078125,-0.8610382080078125
1737750413957768200,4.088768310546875,-0.0545654296875,-0.2860260009765625,-0.87640380859375
1737750413967836200,4.098836181640625,-0.0507049560546875,-0.3488006591796875,-0.9124298095703125
1737750413977904000,4.108904052734375,-0.04425048828125,-0.4209136962890625,-0.942535400390625
1737750413987972000,4.11897216796875,-0.043426513671875,-0.47381591796875,-0.94549560546875
1737750413998040300,4.129040283203125,-0.05621337890625,-0.5049896240234375,-0.914825439453125
1737750414008107300,4.139107177734375,-0.0748443603515625,-0.5267791748046875,-0.869140625
1737750414018175200,4.14917529296875,-0.10003662109375,-0.5516510009765625,-0.8174591064453125
1737750414028243000,4.159242919921875,-0.12933349609375,-0.57891845703125,-0.7668914794921875
1737750414038311000,4.169310791015625,-0.1631622314453125,-0.6024322509765625,-0.7253875732421875
1737750414048379100,4.179379150390625,-0.1876068115234375,-0.6220855712890625,-0.7006683349609375
1737750414058447000,4.189447021484375,-0.2021026611328125,-0.6325225830078125,-0.6903076171875
1737750414068515000,4.19951513671875,-0.2097015380859375,-0.6381072998046875,-0.6981048583984375
1737750414078583000,4.2095830078125,-0.213836669921875,-0.640045166015625,-0.7231292724609375
1737750414088651300,4.2196513671875,-0.2213897705078125,-0.6441192626953125,-0.7579345703125
1737750414098719200,4.22971923828125,-0.2192840576171875,-0.6429290771484375,-0.785858154296875
1737750414108786200,4.2397861328125,-0.220703125,-0.6345062255859375,-0.8015899658203125
1737750414118854100,4.249854248046875,-0.2017669677734375,-0.629302978515625,-0.8082733154296875
1737750414128922000,4.259922119140625,-0.1890869140625,-0.63525390625,-0.821197509765625
1737750414138990000,4.269989990234375,-0.1940765380859375,-0.6515350341796875,-0.847137451171875
1737750414149058000,4.28005810546875,-0.18890380859375,-0.6643218994140625,-0.8721771240234375
1737750414159126000,4.2901259765625,-0.18560791015625,-0.6587371826171875,-0.8841400146484375
1737750414169194000,4.300194091796875,-0.1946868896484375,-0.633056640625,-0.8795623779296875
1737750414179262200,4.31026220703125,-0.212432861328125,-0.5997161865234375,-0.870819091796875
1737750414189330200,4.320330078125,-0.229461669921875,-0.5636749267578125,-0.8604736328125
1737750414199398100,4.330398193359375,-0.244293212890625,-0.528411865234375,-0.8544158935546875
1737750414209465900,4.3404658203125,-0.216888427734375,-0.5034637451171875,-0.8445892333984375
1737750414219533300,4.350533203125,-0.2098236083984375,-0.51934814453125,-0.84259033203125
1737750414229601000,4.36060107421875,-0.2794189453125,-0.6073455810546875,-0.860015869140625
1737750414239669000,4.3706689453125,-0.3571624755859375,-0.6785888671875,-0.85919189453125
1737750414249737000,4.380737060546875,-0.3982391357421875,-0.6152191162109375,-0.8021392822265625
1737750414259805200,4.39080517578125,-0.38916015625,-0.45550537109375,-0.736724853515625
1737750414269873200,4.400873046875,-0.358917236328125,-0.3109588623046875,-0.7277984619140625
1737750414279941000,4.410941162109375,-0.336883544921875,-0.237701416015625,-0.7721405029296875
1737750414290009000,4.421009033203125,-0.3210906982421875,-0.2450103759765625,-0.8345947265625
1737750414300077300,4.431077392578125,-0.2916259765625,-0.314239501953125,-0.8899078369140625
1737750414310145000,4.44114501953125,-0.287017822265625,-0.416412353515625,-0.93756103515625
1737750414320212200,4.451212158203125,-0.26513671875,-0.5157928466796875,-0.93597412109375
1737750414330280200,4.4612802734375,-0.253387451171875,-0.5830078125,-0.890106201171875
1737750414340348000,4.471347900390625,-0.2682342529296875,-0.6218109130859375,-0.8427886962890625
1737750414350416100,4.481416015625,-0.293701171875,-0.6430206298828125,-0.801300048828125
1737750414360484000,4.491484130859375,-0.3209228515625,-0.6479339599609375,-0.7718353271484375
1737750414370552000,4.501552001953125,-0.3509063720703125,-0.6346435546875,-0.7626190185546875
1737750414380620000,4.5116201171875,-0.369720458984375,-0.607635498046875,-0.7724609375
1737750414390688300,4.521688232421875,-0.3659820556640625,-0.573455810546875,-0.7863616943359375
1737750414400756500,4.531756591796875,-0.3534698486328125,-0.5310211181640625,-0.7915496826171875
1737750414410824400,4.541824462890625,-0.3303070068359375,-0.48968505859375,-0.786651611328125
1737750414420891600,4.5518916015625,-0.293548583984375,-0.458251953125,-0.771881103515625
1737750414430959400,4.56195947265625,-0.2755279541015625,-0.4387969970703125,-0.7569732666015625
1737750414441027300,4.57202734375,-0.298583984375,-0.4334564208984375,-0.7539520263671875
1737750414451095300,4.58209521484375,-0.3101043701171875,-0.4307098388671875,-0.75750732421875
1737750414461163500,4.59216357421875,-0.3030548095703125,-0.40899658203125,-0.75457763671875
1737750414471231500,4.6022314453125,-0.287506103515625,-0.3785552978515625,-0.741851806640625
1737750414481299500,4.612299560546875,-0.317962646484375,-0.359222412109375,-0.720001220703125
1737750414491367400,4.622367431640625,-0.26019287109375,-0.3629608154296875,-0.6845703125
1737750414501435400,4.632435302734375,-0.250518798828125,-0.3693389892578125,-0.6455230712890625
1737750414511503400,4.64250341796875,-0.31695556640625,-0.39605712890625,-0.6165313720703125
1737750414521571300,4.6525712890625,-0.3123016357421875,-0.4246978759765625,-0.5953216552734375
1737750414531638300,4.66263818359375,-0.3953857421875,-0.4507598876953125,-0.596038818359375
1737750414541706200,4.672706298828125,-0.4733734130859375,-0.4932098388671875,-0.6139373779296875
1737750414551774500,4.6827744140625,-0.499755859375,-0.5400848388671875,-0.642242431640625
1737750414561842400,4.692842529296875,-0.454620361328125,-0.56884765625,-0.6740264892578125
1737750414571910400,4.702910400390625,-0.3755950927734375,-0.555908203125,-0.7154388427734375
1737750414581978400,4.712978271484375,-0.4299468994140625,-0.5273284912109375,-0.7863616943359375
1737750414592046600,4.723046630859375,-0.464385986328125,-0.5032196044921875,-0.9129638671875
1737750414602114600,4.733114501953125,-0.4087371826171875,-0.49639892578125,-1.019744873046875
1737750414612182300,4.743182373046875,-0.3657379150390625,-0.5110015869140625,-1.051605224609375
1737750414622250200,4.753250244140625,-0.3332672119140625,-0.519866943359375,-1.0343475341796875
1737750414632317400,4.7633173828125,0.014373779296875,-0.4919891357421875,-0.9471893310546875
1737750414642385400,4.773385498046875,0.31097412109375,-0.44354248046875,-0.7123870849609375
1737750414652453400,4.783453369140625,0.0391387939453125,-0.5563812255859375,-0.5393524169921875
1737750414662521300,4.793521240234375,-0.159698486328125,-0.7943115234375,-0.68145751953125
1737750414672589600,4.803589599609375,-0.4165191650390625,-0.971282958984375,-0.883514404296875
1737750414682657500,4.813657470703125,-0.5053558349609375,-1.0375518798828125,-0.834320068359375
1737750414692725500,4.8237255859375,-0.5582122802734375,-1.0053558349609375,-0.5828704833984375
1737750414702793500,4.83379345703125,-0.5117645263671875,-0.894866943359375,-0.3211669921875
1737750414712861400,4.843861328125,-0.4500732421875,-0.7482757568359375,-0.14849853515625
1737750414722929400,4.853929443359375,-0.3763885498046875,-0.639678955078125,-0.1002655029296875
1737750414732996400,4.863996337890625,-0.26202392578125,-0.6266021728515625,-0.1409759521484375
1737750414743064300,4.874064208984375,-0.157562255859375,-0.66009521484375,-0.15167236328125
1737750414753132300,4.88413232421875,-0.0890045166015625,-0.6751556396484375,-0.0604095458984375
1737750414763200500,4.894200439453125,-0.024322509765625,-0.66168212890625,0.0950469970703125
1737750414773268500,4.9042685546875,0.001678466796875,-0.6296844482421875,0.2248077392578125
1737750414783336400,4.91433642578125,-0.0587310791015625,-0.6331329345703125,0.2730560302734375
1737750414793404400,4.924404296875,-0.1581268310546875,-0.69036865234375,0.2441558837890625
1737750414803472600,4.93447265625,-0.2891082763671875,-0.8095245361328125,0.1727447509765625
1737750414813540400,4.944540283203125,-0.429046630859375,-0.9989166259765625,0.066192626953125
1737750414823608300,4.9546083984375,-0.4731903076171875,-1.2321014404296875,-0.0596466064453125
1737750414833676300,4.96467626953125,-0.49139404296875,-1.4640655517578125,-0.185791015625
1737750414843743200,4.9747431640625,-0.5047760009765625,-1.6477508544921875,-0.2947998046875
1737750414853811500,4.9848115234375,-0.4817047119140625,-1.750396728515625,-0.394134521484375
1737750414863879400,4.99487939453125,-0.448516845703125,-1.614532470703125,-0.4479827880859375
1737750414873947400,5.004947509765625,-0.4251251220703125,-1.1935272216796875,-0.4012451171875
1737750414884015400,5.015015380859375,-0.3574981689453125,-0.8799591064453125,-0.365997314453125
1737750414894083600,5.02508349609375,-0.27838134765625,-0.7618255615234375,-0.3986663818359375
1737750414904151600,5.035151611328125,-0.2392425537109375,-0.7710723876953125,-0.461822509765625
1737750414914219300,5.04521923828125,-0.218353271484375,-0.8460540771484375,-0.5211334228515625
1737750414924287200,5.055287353515625,-0.217437744140625,-0.914093017578125,-0.5431060791015625
1737750414934355500,5.06535546875,-0.2351226806640625,-0.960693359375,-0.5239410400390625
1737750414944422400,5.07542236328125,-0.2525177001953125,-1.0074005126953125,-0.4816741943359375
1737750414954490400,5.085490478515625,-0.2847900390625,-1.0548095703125,-0.4096832275390625
1737750414964558300,5.095558349609375,-0.308624267578125,-1.108551025390625,-0.307891845703125
1737750414974626600,5.10562646484375,-0.3255615234375,-1.162139892578125,-0.177459716796875
1737750414984694500,5.115694580078125,-0.3504791259765625,-1.1978302001953125,-0.022003173828125
1737750414994762500,5.125762451171875,-0.38897705078125,-1.2047119140625,0.1282958984375
1737750415004830500,5.13583056640625,-0.44329833984375,-1.1894378662109375,0.238922119140625
1737750415014898400,5.1458984375,-0.49169921875,-1.171112060546875,0.2862091064453125
1737750415024966400,5.15596630859375,-0.51458740234375,-1.1552734375,0.2681121826171875
1737750415035034400,5.166034423828125,-0.460693359375,-1.144683837890625,0.2005462646484375
1737750415045101300,5.176101318359375,-0.3479766845703125,-1.1279754638671875,0.10369873046875
1737750415055169300,5.186169189453125,-0.2506866455078125,-1.1195831298828125,-0.00750732421875
1737750415065237500,5.196237548828125,-0.1748199462890625,-1.115936279296875,-0.119171142578125
1737750415075305500,5.206305419921875,-0.13934326171875,-1.0944976806640625,-0.20733642578125
1737750415085373400,5.21637353515625,-0.1448211669921875,-1.0482635498046875,-0.256927490234375
1737750415095441400,5.22644140625,-0.1521759033203125,-0.9918365478515625,-0.2761383056640625
1737750415105509600,5.236509521484375,-0.153778076171875,-0.9425506591796875,-0.2803497314453125
1737750415115577300,5.246577392578125,-0.1636962890625,-0.912384033203125,-0.2788238525390625
1737750415125645300,5.256645263671875,-0.168426513671875,-0.906158447265625,-0.2729339599609375
1737750415135713300,5.26671337890625,-0.171783447265625,-0.9274749755859375,-0.264129638671875
1737750415145781500,5.276781494140625,-0.1724853515625,-0.9708709716796875,-0.2466583251953125
1737750415155848400,5.286848388671875,-0.184967041015625,-1.019805908203125,-0.2125244140625
1737750415165916400,5.29691650390625,-0.2082977294921875,-1.0510101318359375,-0.1637115478515625
1737750415175984400,5.306984375,-0.2311248779296875,-1.057281494140625,-0.109954833984375
1737750415186052400,5.31705224609375,-0.25677490234375,-1.0363616943359375,-0.0577392578125
1737750415196120600,5.32712060546875,-0.3051300048828125,-0.9972991943359375,-0.0152740478515625
1737750415206188500,5.3371884765625,-0.3531494140625,-0.9515380859375,0.0158538818359375
1737750415216256300,5.34725634765625,-0.385284423828125,-0.90069580078125,0.0355072021484375
1737750415226324200,5.35732421875,-0.4079742431640625,-0.8437347412109375,0.04644775390625
1737750415236392400,5.367392333984375,-0.4189910888671875,-0.795501708984375,0.047882080078125
1737750415246460400,5.37746044921875,-0.4275665283203125,-0.7811737060546875,0.029815673828125
1737750415256527400,5.38752734375,-0.4550933837890625,-0.819305419921875,-0.0077056884765625
1737750415266595300,5.39759521484375,-0.480865478515625,-0.87841796875,-0.046173095703125
1737750415276663600,5.40766357421875,-0.504150390625,-0.8936004638671875,-0.064483642578125
1737750415286731500,5.4177314453125,-0.5328826904296875,-0.8498382568359375,-0.054046630859375
1737750415296799500,5.427799560546875,-0.557830810546875,-0.7890625,-0.03240966796875
1737750415306867500,5.437867431640625,-0.5742340087890625,-0.7444305419921875,-0.02178955078125
1737750415316935400,5.447935302734375,-0.58551025390625,-0.731658935546875,-0.02496337890625
1737750415327003400,5.45800341796875,-0.5917510986328125,-0.7477874755859375,-0.0367889404296875
1737750415337071400,5.4680712890625,-0.5919952392578125,-0.775482177734375,-0.0471954345703125
1737750415347139300,5.478139404296875,-0.588531494140625,-0.793212890625,-0.0489044189453125
1737750415357206300,5.488206298828125,-0.583953857421875,-0.7883758544921875,-0.0385589599609375
1737750415367274500,5.4982744140625,-0.588409423828125,-0.7621612548828125,-0.0172576904296875
1737750415377342500,5.508342529296875,-0.59368896484375,-0.73583984375,0.0056304931640625
1737750415387410400,5.518410400390625,-0.607452392578125,-0.7227935791015625,0.0274505615234375
1737750415397484000,5.528484130859375,-0.6305694580078125,-0.7313079833984375,0.047760009765625
1737750415407552300,5.53855224609375,-0.6426544189453125,-0.7578125,0.06396484375
1737750415417620200,5.5486201171875,-0.6539764404296875,-0.7886505126953125,0.0745086669921875
1737750415427688200,5.558688232421875,-0.6559906005859375,-0.806915283203125,0.0765380859375
1737750415437756400,5.56875634765625,-0.65460205078125,-0.7991943359375,0.0674896240234375
1737750415447824100,5.57882421875,-0.6551055908203125,-0.773895263671875,0.0477142333984375
1737750415457892000,5.58889208984375,-0.65130615234375,-0.7438507080078125,0.023040771484375
1737750415467959000,5.598958984375,-0.6409454345703125,-0.716033935546875,-0.0031890869140625
1737750415478027000,5.609027099609375,-0.6290283203125,-0.6982421875,-0.0259246826171875
1737750415488095200,5.61909521484375,-0.6154937744140625,-0.694580078125,-0.04833984375
1737750415498163200,5.6291630859375,-0.602294921875,-0.7031402587890625,-0.067779541015625
1737750415508231200,5.639231201171875,-0.58917236328125,-0.708099365234375,-0.081878662109375
1737750415518299100,5.649299072265625,-0.577911376953125,-0.6967010498046875,-0.08807373046875
1737750415528367400,5.659367431640625,-0.574981689453125,-0.6652679443359375,-0.0878753662109375
1737750415538435300,5.669435302734375,-0.5739593505859375,-0.6151580810546875,-0.083465576171875
1737750415548503000,5.6795029296875,-0.574951171875,-0.560821533203125,-0.0774078369140625
1737750415558571000,5.689571044921875,-0.578155517578125,-0.5117950439453125,-0.0695037841796875
1737750415568639200,5.69963916015625,-0.57989501953125,-0.471771240234375,-0.059967041015625
1737750415578706200,5.7097060546875,-0.576324462890625,-0.4451446533203125,-0.0550994873046875
1737750415588774100,5.719774169921875,-0.57171630859375,-0.4349212646484375,-0.0532989501953125
1737750415598842000,5.729842041015625,-0.5686798095703125,-0.4473419189453125,-0.05035400390625
1737750415608910000,5.73991015625,-0.5662689208984375,-0.475738525390625,-0.043182373046875
1737750415618978300,5.749978271484375,-0.5648345947265625,-0.5121307373046875,-0.0310516357421875
1737750415629046300,5.76004638671875,-0.5691070556640625,-0.54559326171875,-0.018280029296875
1737750415639114200,5.7701142578125,-0.573394775390625,-0.5649871826171875,-0.00103759765625
1737750415649182200,5.78018212890625,-0.5778656005859375,-0.568084716796875,0.0146484375
1737750415659250200,5.790250244140625,-0.584991455078125,-0.556640625,0.0244140625
1737750415669318100,5.800318115234375,-0.6024322509765625,-0.5415802001953125,0.027374267578125
1737750415679386000,5.81038623046875,-0.6237030029296875,-0.5281982421875,0.0261077880859375
1737750415689453000,5.820453125,-0.6416473388671875,-0.5163726806640625,0.0257110595703125
1737750415699521000,5.83052099609375,-0.6602630615234375,-0.506103515625,0.0354461669921875
1737750415709589200,5.84058935546875,-0.676788330078125,-0.496978759765625,0.05322265625
1737750415719657200,5.8506572265625,-0.703643798828125,-0.4888458251953125,0.072998046875
1737750415729725200,5.86072509765625,-0.7351226806640625,-0.487030029296875,0.0892486572265625
1737750415739793400,5.87079345703125,-0.76739501953125,-0.4889678955078125,0.09466552734375
1737750415749861000,5.880861083984375,-0.7911376953125,-0.4966888427734375,0.088775634765625
1737750415759929000,5.89092919921875,-0.803314208984375,-0.502685546875,0.07568359375
1737750415769997000,5.9009970703125,-0.8103790283203125,-0.5061798095703125,0.0589599609375
1737750415780065300,5.911065185546875,-0.8065948486328125,-0.509613037109375,0.044097900390625
1737750415790133200,5.92113330078125,-0.795745849609375,-0.512115478515625,0.0364227294921875
1737750415800200200,5.9312001953125,-0.7882080078125,-0.5205535888671875,0.0348663330078125
1737750415810268200,5.94126806640625,-0.7810821533203125,-0.5339202880859375,0.042388916015625
1737750415820336000,5.951336181640625,-0.7778778076171875,-0.5465850830078125,0.0557403564453125
1737750415830404400,5.961404296875,-0.7761993408203125,-0.5562591552734375,0.0734405517578125
1737750415840472300,5.971472412109375,-0.7660980224609375,-0.5656890869140625,0.089569091796875
1737750415850540300,5.981540283203125,-0.755615234375,-0.583984375,0.100067138671875
1737750415860608000,5.99160791015625,-0.7485504150390625,-0.6122589111328125,0.1033477783203125
1737750415870676200,6.00167626953125,-0.7445831298828125,-0.6544342041015625,0.10107421875
1737750415880744200,6.011744140625,-0.741424560546875,-0.7143096923828125,0.0982208251953125
1737750415890812200,6.021812255859375,-0.7427825927734375,-0.7900238037109375,0.096923828125
1737750415900880100,6.031880126953125,-0.7493743896484375,-0.8807830810546875,0.102020263671875
1737750415910947000,6.041947021484375,-0.76177978515625,-0.9842681884765625,0.1158599853515625
1737750415921015300,6.052015380859375,-0.778533935546875,-1.0972442626953125,0.133270263671875
1737750415931083300,6.062083251953125,-0.8058013916015625,-1.19952392578125,0.15435791015625
1737750415941151200,6.072151123046875,-0.829315185546875,-1.2508392333984375,0.1859130859375
1737750415951219200,6.08221923828125,-0.83758544921875,-1.211517333984375,0.229522705078125
1737750415961287200,6.092287109375,-0.8448638916015625,-1.067535400390625,0.2735443115234375
1737750415971355100,6.102355224609375,-0.8661956787109375,-0.917388916015625,0.28277587890625
1737750415981423000,6.112423095703125,-0.879486083984375,-0.831573486328125,0.2593994140625
1737750415991491000,6.122490966796875,-0.8706207275390625,-0.8203887939453125,0.21966552734375
1737750416001559300,6.132559326171875,-0.8447418212890625,-0.894378662109375,0.17724609375
1737750416011627300,6.142627197265625,-0.8060150146484375,-1.0192718505859375,0.1522369384765625
1737750416021695200,6.1526953125,-0.762481689453125,-1.14105224609375,0.1481781005859375
1737750416031762200,6.16276220703125,-0.7231292724609375,-1.2133331298828125,0.1536865234375
1737750416041830400,6.172830322265625,-0.6861724853515625,-1.21722412109375,0.161285400390625
1737750416051898400,6.1828984375,-0.656036376953125,-1.169830322265625,0.165008544921875
1737750416061966000,6.192966064453125,-0.631256103515625,-1.1030426025390625,0.155670166015625
1737750416072034000,6.203033935546875,-0.6068115234375,-1.041229248046875,0.1352081298828125
1737750416082102300,6.213102294921875,-0.5833740234375,-0.9925689697265625,0.1082916259765625
1737750416092170200,6.223170166015625,-0.56207275390625,-0.9515380859375,0.0782623291015625
1737750416102238200,6.23323828125,-0.5379180908203125,-0.9110870361328125,0.0478515625
1737750416112306200,6.24330615234375,-0.51287841796875,-0.875,0.016998291015625
1737750416122374400,6.25337451171875,-0.4883270263671875,-0.85076904296875,-0.0052490234375
1737750416132442000,6.263442138671875,-0.46270751953125,-0.84393310546875,-0.009857177734375
1737750416142509300,6.27350927734375,-0.4398193359375,-0.850372314453125,0.010040283203125
1737750416152577300,6.283577392578125,-0.4221343994140625,-0.8633575439453125,0.0483856201171875
1737750416162645000,6.29364501953125,-0.4113311767578125,-0.873077392578125,0.091552734375
1737750416172713200,6.303713134765625,-0.4011688232421875,-0.875030517578125,0.123992919921875
1737750416182781200,6.31378125,-0.3964080810546875,-0.8659210205078125,0.1451416015625
1737750416192849200,6.32384912109375,-0.397186279296875,-0.8502655029296875,0.1539154052734375
1737750416202917000,6.333917236328125,-0.3991241455078125,-0.8326416015625,0.1498870849609375
1737750416212985300,6.3439853515625,-0.408294677734375,-0.8184814453125,0.1389617919921875
1737750416223053300,6.35405322265625,-0.4174346923828125,-0.8058624267578125,0.123138427734375
1737750416233121300,6.364121337890625,-0.423858642578125,-0.7954254150390625,0.1028594970703125
1737750416243189000,6.37418896484375,-0.42535400390625,-0.7867279052734375,0.0821685791015625
1737750416253257200,6.38425732421875,-0.420135498046875,-0.782867431640625,0.0595855712890625
1737750416263325200,6.3943251953125,-0.4187469482421875,-0.7912139892578125,0.0345001220703125
1737750416273392000,6.40439208984375,-0.4211883544921875,-0.8158416748046875,0.009124755859375
1737750416283460000,6.414460205078125,-0.419189453125,-0.8448944091796875,-0.0125885009765625
1737750416293528000,6.424528076171875,-0.4160919189453125,-0.8647918701171875,-0.033599853515625
1737750416303596300,6.43459619140625,-0.4109344482421875,-0.8639984130859375,-0.0514373779296875
1737750416313664300,6.444664306640625,-0.408905029296875,-0.848907470703125,-0.0688323974609375
1737750416323732200,6.454732177734375,-0.41107177734375,-0.832611083984375,-0.0844573974609375
1737750416333800200,6.46480029296875,-0.4122314453125,-0.8178253173828125,-0.096405029296875
1737750416343868200,6.4748681640625,-0.4150848388671875,-0.80242919921875,-0.0971527099609375
1737750416353936100,6.48493603515625,-0.418182373046875,-0.7839508056640625,-0.086944580078125
1737750416364004000,6.495004150390625,-0.4286041259765625,-0.764862060546875,-0.07086181640625
1737750416374072000,6.505072021484375,-0.4420928955078125,-0.7467041015625,-0.054595947265625
1737750416384139300,6.51513916015625,-0.4599151611328125,-0.7301177978515625,-0.040283203125
1737750416394200600,6.52520068359375,-0.4719696044921875,-0.717559814453125,-0.025390625
1737750416404268500,6.5352685546875,-0.4858245849609375,-0.713714599609375,-0.0083770751953125
1737750416414336800,6.545336669921875,-0.4942626953125,-0.7185211181640625,0.010833740234375
1737750416424404700,6.55540478515625,-0.4959716796875,-0.734222412109375,0.0298309326171875
1737750416434472400,6.565472412109375,-0.4907379150390625,-0.75823974609375,0.042724609375
1737750416444540400,6.57554052734375,-0.4828948974609375,-0.78350830078125,0.0439910888671875
1737750416454608600,6.585608642578125,-0.4769439697265625,-0.8029632568359375,0.037750244140625
1737750416464676600,6.595676513671875,-0.4732513427734375,-0.81097412109375,0.03314208984375
1737750416474744600,6.60574462890625,-0.47027587890625,-0.8086395263671875,0.0323028564453125
1737750416484812500,6.6158125,-0.472076416015625,-0.802276611328125,0.034088134765625
1737750416494880800,6.625880859375,-0.4804229736328125,-0.7899169921875,0.0380706787109375
1737750416504947700,6.63594775390625,-0.4895172119140625,-0.767822265625,0.0383148193359375
1737750416515015700,6.646015625,-0.4911346435546875,-0.74462890625,0.0335693359375
1737750416525083600,6.656083740234375,-0.4921722412109375,-0.7357330322265625,0.0223846435546875
1737750416535151400,6.6661513671875,-0.49456787109375,-0.753173828125,0.005767822265625
1737750416545219600,6.676219482421875,-0.4969482421875,-0.7839202880859375,-0.0056304931640625
1737750416555287600,6.68628759765625,-0.508270263671875,-0.802703857421875,-0.0066070556640625
1737750416565355500,6.69635546875,-0.5195159912109375,-0.789031982421875,0.0026702880859375
1737750416575423700,6.706423828125,-0.5316619873046875,-0.740753173828125,0.0145111083984375
1737750416585491700,6.71649169921875,-0.539825439453125,-0.67608642578125,0.0279541015625
1737750416595559700,6.7265595703125,-0.54400634765625,-0.6036834716796875,0.045135498046875
1737750416605627600,6.736627685546875,-0.5478515625,-0.5299072265625,0.0683441162109375
1737750416615695600,6.746695556640625,-0.548492431640625,-0.4602813720703125,0.0937652587890625
1737750416625763600,6.756763671875,-0.5558624267578125,-0.4039459228515625,0.1148529052734375
1737750416635830500,6.76683056640625,-0.5600128173828125,-0.3676910400390625,0.12689208984375
1737750416645898500,6.7768984375,-0.558074951171875,-0.35736083984375,0.124298095703125
1737750416655966500,6.786966552734375,-0.5570220947265625,-0.3790130615234375,0.1143646240234375
1737750416666034700,6.79703466796875,-0.5578765869140625,-0.4431304931640625,0.1054534912109375
1737750416676102700,6.8071025390625,-0.5578765869140625,-0.5532073974609375,0.1069793701171875
1737750416686170600,6.817170654296875,-0.564453125,-0.6890869140625,0.1178741455078125
1737750416696238600,6.827238525390625,-0.5772552490234375,-0.8111419677734375,0.1381988525390625
1737750416706306800,6.837306884765625,-0.6088409423828125,-0.90484619140625,0.15008544921875
1737750416716374500,6.84737451171875,-0.6402130126953125,-0.9408721923828125,0.14227294921875
1737750416726442500,6.8574423828125,-0.6701202392578125,-0.8964691162109375,0.1170806884765625
1737750416736510500,6.867510498046875,-0.7110748291015625,-0.8114776611328125,0.0743865966796875
1737750416746578700,6.87757861328125,-0.75140380859375,-0.7305908203125,0.017669677734375
1737750416756646700,6.887646728515625,-0.7765655517578125,-0.668731689453125,-0.0413665771484375
1737750416766713600,6.897713623046875,-0.7783050537109375,-0.6215362548828125,-0.0884246826171875
1737750416776781600,6.907781494140625,-0.7630462646484375,-0.5760955810546875,-0.12255859375
1737750416786849500,6.917849609375,-0.740386962890625,-0.533935546875,-0.151092529296875
1737750416796917800,6.927917724609375,-0.718658447265625,-0.5016326904296875,-0.1711273193359375
1737750416806985700,6.93798583984375,-0.6938629150390625,-0.484130859375,-0.1847076416015625
1737750416817053400,6.948053466796875,-0.6839141845703125,-0.478515625,-0.1953887939453125
1737750416827121400,6.958121337890625,-0.68792724609375,-0.4740142822265625,-0.2011260986328125
1737750416837189600,6.968189697265625,-0.6884307861328125,-0.4676666259765625,-0.1955718994140625
1737750416847257600,6.978257568359375,-0.6925811767578125,-0.46185302734375,-0.1739959716796875
1737750416857325600,6.98832568359375,-0.6967010498046875,-0.46209716796875,-0.14178466796875
1737750416867393500,6.9983935546875,-0.6890869140625,-0.4709930419921875,-0.103851318359375
1737750416877461800,7.008461669921875,-0.6808929443359375,-0.50054931640625,-0.0605010986328125
1737750416887529700,7.01852978515625,-0.6724395751953125,-0.5532073974609375,-0.0126495361328125
1737750416897596700,7.0285966796875,-0.6691131591796875,-0.6258544921875,0.039154052734375
1737750416907664600,7.03866455078125,-0.6757354736328125,-0.708953857421875,0.095458984375
1737750416917732600,7.048732666015625,-0.684478759765625,-0.7890167236328125,0.1493988037109375
1737750416927800600,7.058800537109375,-0.7032928466796875,-0.842803955078125,0.194671630859375
1737750416937868500,7.06886865234375,-0.726654052734375,-0.8612823486328125,0.2227935791015625
1737750416947936500,7.0789365234375,-0.7548828125,-0.8518218994140625,0.23272705078125
1737750416958004700,7.089004638671875,-0.79302978515625,-0.84381103515625,0.2162322998046875
1737750416968072700,7.09907275390625,-0.8272705078125,-0.8551483154296875,0.1805419921875
1737750416978140700,7.109140625,-0.8460845947265625,-0.8912200927734375,0.13543701171875
1737750416988208600,7.119208740234375,-0.855194091796875,-0.9500885009765625,0.0818634033203125
1737750416998276600,7.129276611328125,-0.868499755859375,-1.00225830078125,0.0214996337890625
1737750417008344600,7.139344482421875,-0.8836669921875,-1.0101470947265625,-0.0382080078125
1737750417018412500,7.14941259765625,-0.8879547119140625,-0.97100830078125,-0.0947723388671875
1737750417028479500,7.1594794921875,-0.8826904296875,-0.8970947265625,-0.1398162841796875
1737750417038547500,7.16954736328125,-0.890350341796875,-0.8223419189453125,-0.1831817626953125
1737750417048615700,7.17961572265625,-0.8979034423828125,-0.769500732421875,-0.23895263671875
1737750417058683600,7.18968359375,-0.903778076171875,-0.73785400390625,-0.2997589111328125
1737750417068751600,7.199751708984375,-0.8984527587890625,-0.725341796875,-0.35400390625
1737750417078819600,7.209819580078125,-0.8875885009765625,-0.7142791748046875,-0.3899688720703125
1737750417088887800,7.2198876953125,-0.8610076904296875,-0.69195556640625,-0.3999481201171875
1737750417098955500,7.22995556640625,-0.8288116455078125,-0.6709136962890625,-0.3998870849609375
1737750417109023500,7.2400234375,-0.79290771484375,-0.654388427734375,-0.4029998779296875
1737750417119091500,7.250091552734375,-0.7587432861328125,-0.64447021484375,-0.4201812744140625
1737750417129159700,7.26015966796875,-0.7429962158203125,-0.6374969482421875,-0.4522247314453125
1737750417139227600,7.2702275390625,-0.7231597900390625,-0.627532958984375,-0.4897918701171875
1737750417149295600,7.280295654296875,-0.6974334716796875,-0.607757568359375,-0.5310516357421875
1737750417159362600,7.290362548828125,-0.6799163818359375,-0.589080810546875,-0.57177734375
1737750417169430500,7.300430419921875,-0.6510467529296875,-0.5858612060546875,-0.615234375
1737750417179498800,7.310498779296875,-0.6092071533203125,-0.5849609375,-0.6606292724609375
1737750417189566700,7.320566650390625,-0.589141845703125,-0.5755615234375,-0.7072601318359375
1737750417199634400,7.330634521484375,-0.5766143798828125,-0.568634033203125,-0.7603912353515625
1737750417209702400,7.340702392578125,-0.5522308349609375,-0.5696258544921875,-0.8161468505859375
1737750417219770600,7.3507705078125,-0.5200958251953125,-0.5748291015625,-0.8623809814453125
1737750417229838600,7.360838623046875,-0.490509033203125,-0.5840911865234375,-0.892181396484375
1737750417239906600,7.370906494140625,-0.46319580078125,-0.5879669189453125,-0.9087982177734375
1737750417249974500,7.380974609375,-0.4517669677734375,-0.5777435302734375,-0.927093505859375
1737750417260042800,7.391042724609375,-0.45587158203125,-0.55731201171875,-0.9514312744140625
1737750417270110700,7.40111083984375,-0.4693756103515625,-0.5279998779296875,-0.96514892578125
1737750417280178400,7.411178466796875,-0.5077972412109375,-0.5059967041015625,-0.9575347900390625
1737750417290246400,7.421246337890625,-0.567413330078125,-0.5255889892578125,-0.924957275390625
1737750417300313600,7.431313720703125,-0.6080169677734375,-0.6277008056640625,-0.867828369140625
1737750417310381600,7.441381591796875,-0.6422271728515625,-0.81640625,-0.7866668701171875
1737750417320449500,7.451449462890625,-0.6750335693359375,-1.0374908447265625,-0.665008544921875
1737750417330517500,7.461517578125,-0.7100372314453125,-1.2236480712890625,-0.498443603515625
1737750417340585700,7.471585693359375,-0.7589263916015625,-1.29730224609375,-0.310089111328125
1737750417350653700,7.48165380859375,-0.84326171875,-1.2523193359375,-0.1380157470703125
1737750417360721700,7.4917216796875,-0.923492431640625,-1.16754150390625,-0.0350494384765625
1737750417370789600,7.50178955078125,-0.958526611328125,-1.1043701171875,0.001129150390625
1737750417380857600,7.511857666015625,-0.9703521728515625,-1.0703887939453125,0.0157318115234375
1737750417390925600,7.521925537109375,-0.9740142822265625,-1.050750732421875,0.0300140380859375
1737750417400997400,7.531997314453125,-0.961273193359375,-1.0154266357421875,0.0476226806640625
1737750417411065300,7.5420654296875,-0.9384765625,-0.9522705078125,0.0591888427734375
1737750417421133300,7.55213330078125,-0.9032745361328125,-0.8848114013671875,0.0477447509765625
1737750417431200300,7.5622001953125,-0.856658935546875,-0.847991943359375,0.0178375244140625
1737750417441268200,7.572268310546875,-0.7946014404296875,-0.8614654541015625,-0.0215606689453125
1737750417451336400,7.58233642578125,-0.7191314697265625,-0.910003662109375,-0.0500030517578125
1737750417461404400,7.592404296875,-0.6560516357421875,-0.9528961181640625,-0.0557098388671875
1737750417471472400,7.602472412109375,-0.60791015625,-0.94940185546875,-0.05108642578125
1737750417481540000,7.6125400390625,-0.57830810546875,-0.898651123046875,-0.043853759765625
1737750417491608300,7.6226083984375,-0.55474853515625,-0.8407440185546875,-0.0411834716796875
1737750417501676300,7.63267626953125,-0.551910400390625,-0.80938720703125,-0.0459747314453125
1737750417511744300,7.642744140625,-0.5642242431640625,-0.81304931640625,-0.057525634765625
1737750417521812200,7.652812255859375,-0.5850677490234375,-0.84503173828125,-0.07012939453125
1737750417531880400,7.66288037109375,-0.5893096923828125,-0.9006500244140625,-0.0784149169921875
1737750417541948400,7.672948486328125,-0.582733154296875,-0.968475341796875,-0.0804595947265625
1737750417552016400,7.683016357421875,-0.60662841796875,-1.011810302734375,-0.0767059326171875
1737750417562084000,7.693083984375,-0.6374664306640625,-1.0087432861328125,-0.0653228759765625
1737750417572152300,7.70315234375,-0.63775634765625,-0.9780731201171875,-0.0579833984375
1737750417582219300,7.71321923828125,-0.655364990234375,-0.9423065185546875,-0.058929443359375
1737750417592287200,7.723287353515625,-0.6751251220703125,-0.9268951416015625,-0.0544281005859375
1737750417602355200,7.733355224609375,-0.662506103515625,-0.94659423828125,-0.0562591552734375
1737750417612423400,7.74342333984375,-0.63348388671875,-0.9735260009765625,-0.0648193359375
1737750417622491400,7.753491455078125,-0.6242218017578125,-0.96453857421875,-0.058013916015625
1737750417632559400,7.763559326171875,-0.6088714599609375,-0.927764892578125,-0.0413818359375
1737750417642627300,7.77362744140625,-0.5963897705078125,-0.8888397216796875,-0.0261688232421875
1737750417652695300,7.7836953125,-0.5875244140625,-0.869781494140625,-0.01666259765625
1737750417662763300,7.79376318359375,-0.5878143310546875,-0.87030029296875,-0.0173492431640625
1737750417672831200,7.803831298828125,-0.545623779296875,-0.8734588623046875,-0.015869140625
1737750417682899200,7.813899169921875,-0.5061492919921875,-0.851837158203125,-0.0107574462890625
1737750417692967400,7.823967529296875,-0.449188232421875,-0.8059539794921875,-0.0064697265625
1737750417703035400,7.834035400390625,-0.390350341796875,-0.7427520751953125,0.0020599365234375
1737750417713102300,7.844102294921875,-0.3466339111328125,-0.681793212890625,0.0106353759765625
1737750417723170300,7.85417041015625,-0.3116607666015625,-0.650299072265625,0.0065155029296875
1737750417733238300,7.86423828125,-0.294891357421875,-0.6539154052734375,-0.00555419921875
1737750417743306500,7.874306396484375,-0.2979278564453125,-0.6767120361328125,-0.0192108154296875
1737750417753374500,7.88437451171875,-0.306976318359375,-0.7042083740234375,-0.0432891845703125
1737750417763442200,7.894442138671875,-0.3165130615234375,-0.721038818359375,-0.0717315673828125
1737750417773510100,7.90451025390625,-0.31414794921875,-0.707611083984375,-0.09808349609375
1737750417783578400,7.914578369140625,-0.2962493896484375,-0.67791748046875,-0.126251220703125
1737750417793646300,7.924646240234375,-0.2880706787109375,-0.655029296875,-0.1537933349609375
1737750417803714300,7.93471435546875,-0.296630859375,-0.6422271728515625,-0.177337646484375
1737750417813782300,7.9447822265625,-0.3161773681640625,-0.6375885009765625,-0.19219970703125
1737750417823850500,7.9548505859375,-0.3216400146484375,-0.641326904296875,-0.2052001953125
1737750417833918200,7.964918212890625,-0.324310302734375,-0.6548614501953125,-0.2196502685546875
1737750417843986200,7.974986083984375,-0.3121337890625,-0.6690216064453125,-0.219879150390625
1737750417854054100,7.98505419921875,-0.30950927734375,-0.6700592041015625,-0.2086944580078125
1737750417864121000,7.99512109375,-0.318603515625,-0.6646270751953125,-0.1918792724609375
1737750417874189300,8.005189208984374,-0.3319091796875,-0.666839599609375,-0.174285888671875
1737750417884257300,8.01525732421875,-0.352813720703125,-0.723876953125,-0.1723785400390625
1737750417894325200,8.0253251953125,-0.40838623046875,-0.8549957275390625,-0.196136474609375
1737750417904393200,8.035393310546874,-0.4954071044921875,-0.985748291015625,-0.2275543212890625
1737750417914461400,8.04546142578125,-0.5681304931640625,-1.00543212890625,-0.2476043701171875
1737750417924529400,8.055529296875,-0.6350555419921875,-0.8765411376953125,-0.271942138671875
1737750417934597400,8.065597412109375,-0.663970947265625,-0.682769775390625,-0.322052001953125
1737750417944665000,8.0756650390625,-0.674163818359375,-0.530426025390625,-0.4031829833984375
1737750417954733300,8.0857333984375,-0.7124481201171875,-0.44903564453125,-0.5103302001953125
1737750417964801300,8.09580126953125,-0.77587890625,-0.4547882080078125,-0.628662109375
1737750417974869200,8.105869140625,-0.8486785888671875,-0.5377197265625,-0.731353759765625
1737750417984937200,8.115937255859375,-0.91168212890625,-0.65618896484375,-0.77020263671875
1737750417995005400,8.12600537109375,-0.933319091796875,-0.7583465576171875,-0.7030487060546875
1737750418005073400,8.136073486328126,-0.9395751953125,-0.8067626953125,-0.55596923828125
1737750418015141400,8.146141357421875,-0.918853759765625,-0.80792236328125,-0.3999481201171875
1737750418025208300,8.156208251953124,-0.8729095458984375,-0.791015625,-0.2798919677734375
1737750418035276300,8.1662763671875,-0.8187255859375,-0.766693115234375,-0.2052154541015625
1737750418045344300,8.17634423828125,-0.7760772705078125,-0.7343292236328125,-0.1745758056640625
1737750418055412200,8.186412109375,-0.7524566650390625,-0.70654296875,-0.1720733642578125
1737750418065480200,8.196480224609376,-0.742279052734375,-0.692138671875,-0.174652099609375
1737750418075548400,8.20654833984375,-0.7070465087890625,-0.688446044921875,-0.1696624755859375
1737750418085616400,8.216616455078125,-0.6811370849609375,-0.6864013671875,-0.15802001953125
1737750418095684400,8.226684326171876,-0.652740478515625,-0.6806640625,-0.139678955078125
1737750418105752300,8.23675244140625,-0.6125946044921875,-0.665496826171875,-0.119537353515625
1737750418115820300,8.2468203125,-0.5727386474609375,-0.637420654296875,-0.1053924560546875
1737750418125888300,8.25688818359375,-0.54229736328125,-0.61187744140625,-0.1060943603515625
1737750418135956200,8.266956298828125,-0.523712158203125,-0.6050262451171875,-0.119110107421875
1737750418146024200,8.277024169921875,-0.5107269287109375,-0.6138916015625,-0.14630126953125
1737750418156092400,8.287092529296874,-0.5061798095703125,-0.623992919921875,-0.1744232177734375
1737750418166160400,8.297160400390625,-0.5208740234375,-0.625213623046875,-0.19976806640625
1737750418176227300,8.307227294921875,-0.5504302978515625,-0.6186370849609375,-0.2238006591796875
1737750418186295300,8.31729541015625,-0.5856170654296875,-0.605072021484375,-0.24420166015625
1737750418196363300,8.32736328125,-0.6143646240234375,-0.5866546630859375,-0.2567901611328125
1737750418206431500,8.337431396484375,-0.627655029296875,-0.575408935546875,-0.2630462646484375
1737750418216499500,8.34749951171875,-0.6273040771484375,-0.57940673828125,-0.2739105224609375
1737750418226567200,8.357567138671875,-0.626373291015625,-0.5966949462890625,-0.2972412109375
1737750418236635100,8.36763525390625,-0.62530517578125,-0.6196136474609375,-0.3325958251953125
1737750418246703400,8.377703369140624,-0.617706298828125,-0.6431732177734375,-0.374908447265625
1737750418256771300,8.387771240234375,-0.6103057861328125,-0.661407470703125,-0.4184722900390625
1737750418266839300,8.39783935546875,-0.6049957275390625,-0.665863037109375,-0.4480743408203125
1737750418276907300,8.4079072265625,-0.600982666015625,-0.6571502685546875,-0.457122802734375
1737750418286975500,8.4179755859375,-0.5907440185546875,-0.6544036865234375,-0.4586944580078125
1737750418297043200,8.428043212890625,-0.582672119140625,-0.6636962890625,-0.4616546630859375
1737750418307111200,8.438111083984374,-0.588226318359375,-0.6881561279296875,-0.472076416015625
1737750418317179100,8.44817919921875,-0.5948944091796875,-0.719207763671875,-0.4851531982421875
1737750418327247400,8.458247314453125,-0.6108245849609375,-0.7442169189453125,-0.4946136474609375
1737750418337314300,8.468314208984374,-0.6396942138671875,-0.7466583251953125,-0.5012969970703125
1737750418347382300,8.47838232421875,-0.6512603759765625,-0.72406005859375,-0.5102996826171875
1737750418357450200,8.4884501953125,-0.6562347412109375,-0.69073486328125,-0.5269012451171875
1737750418367518500,8.4985185546875,-0.6488189697265625,-0.6642913818359375,-0.544464111328125
1737750418377586400,8.50858642578125,-0.6195831298828125,-0.645538330078125,-0.5537261962890625
1737750418387654400,8.518654296875,-0.5863800048828125,-0.6377105712890625,-0.5563507080078125
1737750418397718500,8.528718505859375,-0.5635833740234375,-0.647491455078125,-0.554290771484375
1737750418407786500,8.538786376953125,-0.551025390625,-0.6766357421875,-0.5485382080078125
1737750418417854500,8.5488544921875,-0.54296875,-0.7170257568359375,-0.532470703125
1737750418427922400,8.55892236328125,-0.539276123046875,-0.7526092529296875,-0.5056915283203125
1737750418437990400,8.568990478515625,-0.5346221923828125,-0.7749176025390625,-0.4669036865234375
1737750418448058400,8.579058349609374,-0.5195465087890625,-0.7853851318359375,-0.4231719970703125
1737750418458126600,8.589126708984375,-0.5005950927734375,-0.78857421875,-0.3845062255859375
1737750418468194600,8.599194580078125,-0.4926300048828125,-0.795196533203125,-0.35699462890625
1737750418478262500,8.609262451171874,-0.48583984375,-0.8010406494140625,-0.3387908935546875
1737750418488330200,8.619330322265625,-0.486907958984375,-0.8024749755859375,-0.324127197265625
1737750418498397400,8.6293974609375,-0.49395751953125,-0.793914794921875,-0.3119659423828125
1737750418508465400,8.63946533203125,-0.4976043701171875,-0.780731201171875,-0.301055908203125
1737750418518533400,8.649533447265625,-0.496673583984375,-0.7742462158203125,-0.294403076171875
1737750418528601300,8.659601318359375,-0.4929351806640625,-0.7790985107421875,-0.287872314453125
1737750418538669300,8.66966943359375,-0.4959869384765625,-0.7950592041015625,-0.2814483642578125
1737750418548737500,8.679737548828125,-0.4979705810546875,-0.81982421875,-0.2729034423828125
1737750418558805500,8.689805419921875,-0.503173828125,-0.8462982177734375,-0.266754150390625
1737750418568873500,8.69987353515625,-0.5125579833984375,-0.8679962158203125,-0.261749267578125
1737750418578941400,8.70994140625,-0.5218963623046875,-0.8826904296875,-0.25958251953125
1737750418589009400,8.720009521484375,-0.5278167724609375,-0.8890533447265625,-0.2620086669921875
1737750418599077400,8.730077392578124,-0.5316162109375,-0.8877410888671875,-0.2677001953125
1737750418609145300,8.740145263671875,-0.533233642578125,-0.8847808837890625,-0.2738037109375
1737750418619213300,8.75021337890625,-0.5375518798828125,-0.8819122314453125,-0.27972412109375
1737750418629281500,8.760281494140624,-0.5516815185546875,-0.878021240234375,-0.2838897705078125
1737750418639349500,8.770349609375,-0.5633544921875,-0.874908447265625,-0.2874755859375
1737750418649417500,8.78041748046875,-0.5743560791015625,-0.8766326904296875,-0.2967071533203125
1737750418659484400,8.790484375,-0.58526611328125,-0.8872222900390625,-0.3048553466796875
1737750418669552400,8.800552490234375,-0.5902099609375,-0.90087890625,-0.302642822265625
1737750418679620600,8.81062060546875,-0.5947418212890625,-0.90032958984375,-0.293304443359375
1737750418689688300,8.820688232421874,-0.602386474609375,-0.8858489990234375,-0.2788238525390625
1737750418699756300,8.83075634765625,-0.6017608642578125,-0.8646697998046875,-0.26959228515625
1737750418709824300,8.84082421875,-0.595306396484375,-0.8420562744140625,-0.2630767822265625
1737750418719892500,8.850892578125,-0.592071533203125,-0.8228759765625,-0.26202392578125
1737750418729960400,8.86096044921875,-0.5823822021484375,-0.812408447265625,-0.257965087890625
1737750418740028400,8.8710283203125,-0.564208984375,-0.8085784912109375,-0.25213623046875
1737750418750096400,8.881096435546874,-0.54296875,-0.809356689453125,-0.2488250732421875
1737750418760164600,8.89116455078125,-0.5182342529296875,-0.8089447021484375,-0.2452545166015625
1737750418770232300,8.901232421875,-0.4975433349609375,-0.8099822998046875,-0.240966796875
1737750418780300300,8.91130029296875,-0.4838409423828125,-0.819793701171875,-0.2420806884765625
1737750418790368300,8.9213681640625,-0.4796142578125,-0.838897705078125,-0.2436370849609375
1737750418800436500,8.9314365234375,-0.48193359375,-0.8591461181640625,-0.2405242919921875
1737750418810504400,8.94150439453125,-0.4852142333984375,-0.8727874755859375,-0.2306976318359375
1737750418820571400,8.9515712890625,-0.497467041015625,-0.87054443359375,-0.2149658203125
1737750418830639400,8.961639404296875,-0.507293701171875,-0.85235595703125,-0.1973419189453125
1737750418840707600,8.97170751953125,-0.5069580078125,-0.8191070556640625,-0.182586669921875
1737750418850775600,8.981775634765626,-0.5016021728515625,-0.7767486572265625,-0.1732940673828125
1737750418860843500,8.991843505859375,-0.499847412109375,-0.7393646240234375,-0.1723785400390625
1737750418870911200,9.0019111328125,-0.5033111572265625,-0.720550537109375,-0.1809539794921875
1737750418880979500,9.0119794921875,-0.509063720703125,-0.7239837646484375,-0.1925201416015625
1737750418891047400,9.02204736328125,-0.517242431640625,-0.7479248046875,-0.1993560791015625
1737750418901115400,9.032115478515625,-0.5233917236328125,-0.784698486328125,-0.1966400146484375
1737750418911183400,9.042183349609376,-0.5323028564453125,-0.82672119140625,-0.1844635009765625
1737750418921251600,9.05225146484375,-0.54522705078125,-0.86724853515625,-0.170623779296875
1737750418931319600,9.062319580078125,-0.5562744140625,-0.8966217041015625,-0.160064697265625
1737750418941387500,9.072387451171876,-0.563751220703125,-0.912689208984375,-0.1579742431640625
1737750418951455200,9.082455322265625,-0.5633392333984375,-0.9202117919921875,-0.1628875732421875
1737750418961523500,9.0925234375,-0.5637969970703125,-0.9158782958984375,-0.1714019775390625
1737750418971590400,9.10259033203125,-0.5623931884765625,-0.9002685546875,-0.1747589111328125
1737750418981658400,9.112658447265625,-0.5549163818359375,-0.8742218017578125,-0.1760101318359375
1737750418991726300,9.122726318359375,-0.5588531494140625,-0.8463134765625,-0.1790771484375
1737750419001794300,9.132794189453126,-0.5869903564453125,-0.8271942138671875,-0.1796417236328125
1737750419011862500,9.142862548828125,-0.608184814453125,-0.8233642578125,-0.17608642578125
1737750419021930500,9.152930419921875,-0.6352691650390625,-0.826324462890625,-0.1676025390625
1737750419031998500,9.16299853515625,-0.6531982421875,-0.8336944580078125,-0.1611785888671875
1737750419042066400,9.17306640625,-0.6589508056640625,-0.838836669921875,-0.1641082763671875
1737750419052134400,9.183134521484375,-0.6600799560546875,-0.8432769775390625,-0.179046630859375
1737750419062202400,9.193202392578126,-0.6681671142578125,-0.852569580078125,-0.20220947265625
1737750419072270300,9.203270263671875,-0.687652587890625,-0.8693084716796875,-0.23236083984375
1737750419082338300,9.21333837890625,-0.7093505859375,-0.8849029541015625,-0.2694549560546875
1737750419092406500,9.223406494140624,-0.7316741943359375,-0.880157470703125,-0.306854248046875
1737750419102474500,9.233474609375,-0.7437744140625,-0.8527374267578125,-0.336029052734375
1737750419112542500,9.24354248046875,-0.7421875,-0.815277099609375,-0.35479736328125
1737750419122609400,9.253609375,-0.73004150390625,-0.7794189453125,-0.3618927001953125
1737750419132677400,9.263677490234375,-0.7045135498046875,-0.7418365478515625,-0.3597259521484375
1737750419142745600,9.27374560546875,-0.6675262451171875,-0.703887939453125,-0.3502655029296875
1737750419152813300,9.283813232421876,-0.6289520263671875,-0.666778564453125,-0.3384552001953125
1737750419162881300,9.29388134765625,-0.5947418212890625,-0.6317291259765625,-0.319244384765625
1737750419172949200,9.30394921875,-0.5701904296875,-0.60919189453125,-0.2972869873046875
1737750419183017500,9.314017578125,-0.553497314453125,-0.6091156005859375,-0.279632568359375
1737750419193085400,9.32408544921875,-0.53900146484375,-0.6297760009765625,-0.2679290771484375
1737750419203153400,9.3341533203125,-0.52301025390625,-0.6511993408203125,-0.2564697265625
1737750419213221600,9.3442216796875,-0.5240325927734375,-0.6550750732421875,-0.2437896728515625
1737750419223289600,9.35428955078125,-0.52691650390625,-0.6446075439453125,-0.2287445068359375
1737750419233357300,9.364357421875,-0.5211944580078125,-0.637847900390625,-0.215911865234375
1737750419243425300,9.37442529296875,-0.5084075927734375,-0.6543426513671875,-0.2153167724609375
1737750419253493500,9.384493408203125,-0.503448486328125,-0.7064208984375,-0.229949951171875
1737750419263561500,9.3945615234375,-0.486572265625,-0.775238037109375,-0.2516632080078125
1737750419273628400,9.40462841796875,-0.4713592529296875,-0.824371337890625,-0.2740325927734375
1737750419283696400,9.4146962890625,-0.466888427734375,-0.8369293212890625,-0.28961181640625
1737750419293764400,9.424764404296875,-0.47998046875,-0.812225341796875,-0.301116943359375
1737750419303832600,9.43483251953125,-0.5028839111328125,-0.7758941650390625,-0.3099517822265625
1737750419313900500,9.444900634765625,-0.52752685546875,-0.7509307861328125,-0.3171844482421875
1737750419323968500,9.454968505859375,-0.5415191650390625,-0.744903564453125,-0.3233184814453125
1737750419334036200,9.4650361328125,-0.5460052490234375,-0.754974365234375,-0.32537841796875
1737750419344104400,9.4751044921875,-0.5654449462890625,-0.7887115478515625,-0.3194122314453125
1737750419354172400,9.48517236328125,-0.59295654296875,-0.844818115234375,-0.3097076416015625
1737750419364240400,9.495240478515624,-0.6122894287109375,-0.8995361328125,-0.299407958984375
1737750419374308400,9.505308349609376,-0.627960205078125,-0.9209136962890625,-0.283843994140625
1737750419384376600,9.51537646484375,-0.6434478759765625,-0.8858795166015625,-0.2601776123046875
1737750419394444500,9.525444580078124,-0.6646881103515625,-0.801971435546875,-0.23883056640625
1737750419404516400,9.535516357421875,-0.69085693359375,-0.69671630859375,-0.23040771484375
1737750419414584300,9.545584228515626,-0.7111053466796875,-0.5927276611328125,-0.235931396484375
1737750419424652500,9.555652587890625,-0.729583740234375,-0.5054168701171875,-0.2481689453125
1737750419434719500,9.565719482421875,-0.73297119140625,-0.44610595703125,-0.2597198486328125
1737750419444787500,9.575787353515626,-0.7163848876953125,-0.4215087890625,-0.27886962890625
1737750419454855400,9.58585546875,-0.68353271484375,-0.4371337890625,-0.3141021728515625
1737750419464923400,9.59592333984375,-0.6563262939453125,-0.473297119140625,-0.3584136962890625
1737750419474991600,9.60599169921875,-0.6475677490234375,-0.504791259765625,-0.3970947265625
1737750419485059600,9.6160595703125,-0.648956298828125,-0.5184173583984375,-0.4222412109375
1737750419495127600,9.62612744140625,-0.65667724609375,-0.5196075439453125,-0.4339599609375
1737750419505195300,9.6361953125,-0.667205810546875,-0.5070648193359375,-0.430450439453125
1737750419515263500,9.646263427734375,-0.6911773681640625,-0.476806640625,-0.41192626953125
1737750419525331500,9.65633154296875,-0.7135772705078125,-0.435302734375,-0.3831024169921875
1737750419535399400,9.6663994140625,-0.7152862548828125,-0.399169921875,-0.3493499755859375
1737750419545467400,9.67646728515625,-0.703277587890625,-0.3727874755859375,-0.3149566650390625
1737750419555535600,9.68653564453125,-0.6952972412109375,-0.363128662109375,-0.281463623046875
1737750419565603600,9.696603515625,-0.68414306640625,-0.3759307861328125,-0.2518463134765625
1737750419575671600,9.706671630859375,-0.68328857421875,-0.4052276611328125,-0.22760009765625
1737750419585739300,9.7167392578125,-0.689483642578125,-0.43994140625,-0.213714599609375
1737750419595806500,9.726806396484376,-0.688262939453125,-0.4733123779296875,-0.2147064208984375
1737750419605874400,9.73687451171875,-0.6713409423828125,-0.5057525634765625,-0.2324676513671875
1737750419615942400,9.7469423828125,-0.6467742919921875,-0.5311126708984375,-0.2631683349609375
1737750419626010400,9.75701025390625,-0.6265106201171875,-0.5455474853515625,-0.3018341064453125
1737750419636078300,9.767078369140625,-0.6358642578125,-0.56121826171875,-0.34039306640625
1737750419646146600,9.777146484375,-0.64373779296875,-0.6092529296875,-0.3731536865234375
1737750419656214500,9.787214599609374,-0.62744140625,-0.698974609375,-0.404205322265625
1737750419666282500,9.797282470703125,-0.615447998046875,-0.8176116943359375,-0.44537353515625
1737750419676350500,9.8073505859375,-0.6008453369140625,-0.94189453125,-0.4933929443359375
1737750419686418400,9.81741845703125,-0.5901947021484375,-1.0174713134765625,-0.5304107666015625
1737750419696486400,9.827486328125,-0.59051513671875,-0.9890594482421875,-0.5324859619140625
1737750419706554400,9.837554443359375,-0.6124114990234375,-0.872894287109375,-0.4991455078125
1737750419716622600,9.84762255859375,-0.6484832763671875,-0.7592315673828125,-0.4774932861328125
1737750419726690600,9.857690673828126,-0.67218017578125,-0.679229736328125,-0.4781036376953125
1737750419736758500,9.867758544921875,-0.667724609375,-0.6451263427734375,-0.4865264892578125
1737750419746825500,9.877825439453124,-0.6416473388671875,-0.6776123046875,-0.4932403564453125
1737750419756893400,9.8878935546875,-0.612640380859375,-0.7707977294921875,-0.4871063232421875
1737750419766961700,9.897961669921875,-0.600738525390625,-0.89776611328125,-0.458709716796875
1737750419777029600,9.908029541015624,-0.60467529296875,-1.032135009765625,-0.4083404541015625
1737750419787097300,9.918097412109375,-0.6122283935546875,-1.14691162109375,-0.342437744140625
1737750419797165300,9.928165283203125,-0.61212158203125,-1.2213134765625,-0.2695159912109375
1737750419807233500,9.938233642578124,-0.609466552734375,-1.24920654296875,-0.20556640625
1737750419817301500,9.948301513671876,-0.585052490234375,-1.24688720703125,-0.161895751953125
1737750419827369500,9.958369384765625,-0.545623779296875,-1.225799560546875,-0.1419525146484375
1737750419837437400,9.9684375,-0.5136260986328125,-1.1954803466796875,-0.144073486328125
1737750419847505700,9.978505615234376,-0.4835357666015625,-1.1613006591796875,-0.1562957763671875
1737750419857573600,9.98857373046875,-0.455963134765625,-1.130096435546875,-0.16949462890625
1737750419867641300,9.998641357421874,-0.429534912109375,-1.097015380859375,-0.1691741943359375
1737750419877709300,10.008709228515626,-0.4254302978515625,-1.0645904541015625,-0.16748046875
1737750419887777500,10.018777587890625,-0.42791748046875,-1.04193115234375,-0.1842498779296875
1737750419897845500,10.028845458984375,-0.422943115234375,-1.0163116455078125,-0.2210693359375
1737750419907912400,10.038912353515625,-0.4156951904296875,-0.9750213623046875,-0.268157958984375
1737750419917980400,10.04898046875,-0.405059814453125,-0.92950439453125,-0.32061767578125
1737750419928048400,10.05904833984375,-0.3665924072265625,-0.8917694091796875,-0.371063232421875
1737750419938116600,10.06911669921875,-0.32269287109375,-0.8559112548828125,-0.4098052978515625
1737750419948184600,10.0791845703125,-0.2943878173828125,-0.8315887451171875,-0.43414306640625
1737750419958252500,10.08925244140625,-0.2694854736328125,-0.8220062255859375,-0.444793701171875
1737750419968320300,10.0993203125,-0.256988525390625,-0.8156890869140625,-0.4384307861328125
1737750419978388500,10.109388427734375,-0.2665252685546875,-0.8044586181640625,-0.4162750244140625
1737750419988456400,10.11945654296875,-0.2772979736328125,-0.790374755859375,-0.385284423828125
1737750419998524400,10.1295244140625,-0.2899169921875,-0.778045654296875,-0.34814453125
1737750420008592400,10.13959228515625,-0.3121795654296875,-0.7705535888671875,-0.3065643310546875
1737750420018660600,10.14966064453125,-0.3369140625,-0.7737884521484375,-0.2628021240234375
1737750420028728600,10.159728515625,-0.3577728271484375,-0.77880859375,-0.2194976806640625
1737750420038796500,10.169796630859375,-0.3665924072265625,-0.77978515625,-0.1732025146484375
1737750420048864300,10.1798642578125,-0.3715362548828125,-0.77880859375,-0.1239013671875
1737750420058932500,10.189932373046876,-0.3916168212890625,-0.789306640625,-0.0751953125
1737750420068999400,10.19999951171875,-0.4085540771484375,-0.821868896484375,-0.0311737060546875
1737750420079067400,10.2100673828125,-0.4249114990234375,-0.8626861572265625,0.0084075927734375
1737750420089135400,10.22013525390625,-0.4505157470703125,-0.9066314697265625,0.03399658203125
1737750420099203600,10.23020361328125,-0.483917236328125,-0.9759521484375,0.02960205078125
1737750420109271600,10.240271484375,-0.51434326171875,-1.0775299072265625,-0.00799560546875
1737750420119339500,10.250339599609376,-0.5377655029296875,-1.1846160888671875,-0.0626983642578125
1737750420129407500,10.260407470703125,-0.5589599609375,-1.2483978271484375,-0.1214599609375
1737750420139475700,10.270475830078125,-0.5714874267578125,-1.2353363037109375,-0.18408203125
1737750420149543400,10.28054345703125,-0.5888214111328125,-1.15899658203125,-0.2574310302734375
1737750420159611400,10.290611328125,-0.6170501708984375,-1.0701751708984375,-0.340087890625
1737750420169679400,10.300679443359375,-0.648834228515625,-0.992645263671875,-0.4284820556640625
1737750420179747600,10.31074755859375,-0.678955078125,-0.906585693359375,-0.50250244140625
1737750420189815600,10.320815673828125,-0.7026214599609375,-0.80047607421875,-0.548828125
1737750420199883500,10.330883544921875,-0.7096099853515625,-0.6821136474609375,-0.5672607421875
1737750420209951500,10.340951416015624,-0.6987457275390625,-0.5572509765625,-0.5665435791015625
1737750420220019500,10.35101953125,-0.6840057373046875,-0.4359893798828125,-0.558074951171875
1737750420230086700,10.361086669921875,-0.6553497314453125,-0.3212890625,-0.5475006103515625
1737750420240154600,10.371154541015626,-0.620697021484375,-0.22491455078125,-0.5377197265625
1737750420250222300,10.381222412109375,-0.5932769775390625,-0.16595458984375,-0.5300140380859375
1737750420260290300,10.391290283203125,-0.568817138671875,-0.1559906005859375,-0.5196533203125
1737750420270358500,10.401358642578124,-0.54302978515625,-0.2055206298828125,-0.499267578125
1737750420280426500,10.411426513671875,-0.508209228515625,-0.306884765625,-0.46685791015625
1737750420290494500,10.421494384765625,-0.4825286865234375,-0.4162750244140625,-0.4180755615234375
1737750420300562400,10.4315625,-0.464263916015625,-0.4979400634765625,-0.35174560546875
1737750420310630700,10.441630615234375,-0.457427978515625,-0.5435333251953125,-0.27490234375
1737750420320698600,10.45169873046875,-0.45819091796875,-0.546844482421875,-0.2042694091796875
1737750420330766300,10.461766357421874,-0.4638519287109375,-0.5185699462890625,-0.1540069580078125
1737750420340834300,10.471834228515625,-0.471405029296875,-0.4744873046875,-0.1351165771484375
1737750420350902500,10.481902587890625,-0.4832763671875,-0.430877685546875,-0.1465606689453125
1737750420360970500,10.491970458984374,-0.4878692626953125,-0.3981170654296875,-0.1801605224609375
1737750420371038500,10.50203857421875,-0.4919891357421875,-0.3793182373046875,-0.2238616943359375
1737750420381106400,10.5121064453125,-0.4877166748046875,-0.37274169921875,-0.2699432373046875
1737750420391174700,10.522174560546874,-0.480133056640625,-0.3696746826171875,-0.311065673828125
1737750420401237500,10.532237548828125,-0.4810638427734375,-0.360107421875,-0.3416748046875
1737750420411305700,10.5423056640625,-0.4869842529296875,-0.351226806640625,-0.36383056640625
1737750420421373700,10.552373779296875,-0.5136871337890625,-0.36041259765625,-0.382415771484375
1737750420431441700,10.562441650390625,-0.5301666259765625,-0.3959503173828125,-0.3965606689453125
1737750420441509400,10.57250927734375,-0.5358428955078125,-0.438232421875,-0.4048309326171875
1737750420451577600,10.58257763671875,-0.561370849609375,-0.472686767578125,-0.4158172607421875
1737750420461645600,10.5926455078125,-0.5833892822265625,-0.498260498046875,-0.433013916015625
1737750420471713500,10.602713623046874,-0.604736328125,-0.508697509765625,-0.4562835693359375
1737750420481781500,10.612781494140625,-0.6129913330078125,-0.485931396484375,-0.4842681884765625
1737750420491849700,10.622849609375,-0.6176300048828125,-0.4407958984375,-0.51068115234375
1737750420501917700,10.632917724609374,-0.6320343017578125,-0.40496826171875,-0.537017822265625
1737750420511985700,10.642985595703125,-0.6622467041015625,-0.3965301513671875,-0.5656280517578125
1737750420522053400,10.653053466796875,-0.6949615478515625,-0.4195556640625,-0.596405029296875
1737750420532121600,10.66312158203125,-0.7154541015625,-0.458984375,-0.627716064453125
1737750420542189600,10.673189453125,-0.728302001953125,-0.4999847412109375,-0.6537933349609375
1737750420552257500,10.683257568359375,-0.738372802734375,-0.5291290283203125,-0.663299560546875
1737750420562324500,10.693324462890626,-0.73052978515625,-0.5348968505859375,-0.6431884765625
1737750420572392400,10.703392333984375,-0.695648193359375,-0.522430419921875,-0.6088714599609375
1737750420582460700,10.713460693359375,-0.65374755859375,-0.511566162109375,-0.5912017822265625
1737750420592528600,10.723528564453124,-0.61328125,-0.51177978515625,-0.599853515625
1737750420602596600,10.7335966796875,-0.5932464599609375,-0.52716064453125,-0.62603759765625
1737750420612664600,10.74366455078125,-0.5822906494140625,-0.5645751953125,-0.6577301025390625
1737750420622732500,10.753732666015624,-0.5833587646484375,-0.6294708251953125,-0.688690185546875
1737750420632800500,10.763800537109375,-0.5625762939453125,-0.7114105224609375,-0.70574951171875
1737750420642868500,10.773868408203125,-0.535400390625,-0.7943572998046875,-0.6990814208984375
1737750420652936400,10.7839365234375,-0.5194244384765625,-0.87677001953125,-0.67779541015625
1737750420663004700,10.794004638671876,-0.503662109375,-0.9499053955078125,-0.6690521240234375
1737750420673072600,10.80407275390625,-0.5362091064453125,-0.9985504150390625,-0.694000244140625
1737750420683140600,10.814140625,-0.5954742431640625,-1.0137176513671875,-0.74041748046875
1737750420693208600,10.82420849609375,-0.625518798828125,-1.0239715576171875,-0.796356201171875
1737750420703276500,10.834276611328125,-0.5835418701171875,-1.0338592529296875,-0.832000732421875
1737750420713344500,10.844344482421874,-0.5566864013671875,-0.99676513671875,-0.81842041015625
1737750420723412500,10.85441259765625,-0.5272064208984375,-0.9478759765625,-0.779541015625
1737750420733480400,10.86448046875,-0.460052490234375,-0.9229278564453125,-0.7462615966796875
1737750420743548700,10.874548583984375,-0.37579345703125,-0.9128875732421875,-0.7326812744140625
1737750420753615600,10.88461572265625,-0.3700714111328125,-0.88983154296875,-0.7331085205078125
1737750420763683600,10.89468359375,-0.3918914794921875,-0.875213623046875,-0.730865478515625
1737750420773751600,10.90475146484375,-0.38446044921875,-0.9104156494140625,-0.673675537109375
1737750420783819800,10.91481982421875,-0.3312225341796875,-0.9922332763671875,-0.5609130859375
1737750420793887500,10.924887451171875,-0.3174285888671875,-1.105926513671875,-0.428070068359375
1737750420803955500,10.93495556640625,-0.2718505859375,-1.174560546875,-0.267822265625
1737750420814023400,10.9450234375,-0.2461090087890625,-1.168853759765625,-0.0915374755859375
1737750420824091600,10.955091552734375,-0.2635498046875,-1.10577392578125,0.0735015869140625
1737750420834159600,10.96515966796875,-0.290618896484375,-1.0022735595703125,0.16278076171875
1737750420844227600,10.9752275390625,-0.394775390625,-0.9064483642578125,0.17010498046875
1737750420854295600,10.985295654296875,-0.5262603759765625,-0.84912109375,0.1212158203125
1737750420864363800,10.99536376953125,-0.5874481201171875,-0.8270263671875,0.0492401123046875
1737750420874431500,11.005431396484376,-0.6103057861328125,-0.809722900390625,-0.0278472900390625
1737750420884499500,11.01549951171875,-0.621917724609375,-0.7557830810546875,-0.092681884765625
1737750420894567400,11.0255673828125,-0.6261138916015625,-0.6874847412109375,-0.149322509765625
1737750420904635600,11.0356357421875,-0.62762451171875,-0.653472900390625,-0.21136474609375
1737750420914703600,11.04570361328125,-0.5812835693359375,-0.6219635009765625,-0.2922210693359375
1737750420924771600,11.055771484375,-0.511383056640625,-0.5834503173828125,-0.398345947265625
1737750420934838500,11.065838623046876,-0.4494781494140625,-0.550689697265625,-0.5231781005859375
1737750420944906500,11.075906494140625,-0.4268646240234375,-0.5392913818359375,-0.6455841064453125
1737750420954974700,11.085974609375,-0.4431610107421875,-0.568939208984375,-0.7386016845703125
1737750420965042700,11.096042724609376,-0.4585418701171875,-0.6249237060546875,-0.775604248046875
1737750420975110700,11.106110595703125,-0.48956298828125,-0.6561279296875,-0.74200439453125
1737750420985178400,11.116178466796875,-0.5429229736328125,-0.6402740478515625,-0.65521240234375
1737750420995246600,11.12624658203125,-0.595367431640625,-0.6087646484375,-0.56719970703125
1737750421005314600,11.136314453125,-0.6342620849609375,-0.5838470458984375,-0.50665283203125
1737750421015382500,11.146382568359375,-0.6553802490234375,-0.5724029541015625,-0.4921722412109375
1737750421025450500,11.156450439453126,-0.6786651611328125,-0.5676727294921875,-0.51910400390625
1737750421035518700,11.166518798828125,-0.6927337646484375,-0.5740814208984375,-0.5469512939453125
1737750421045586700,11.176586669921875,-0.7042694091796875,-0.5816650390625,-0.560546875
1737750421055654400,11.186654296875,-0.7270660400390625,-0.574920654296875,-0.5669097900390625
1737750421065722400,11.196722412109375,-0.7493743896484375,-0.55340576171875,-0.5784149169921875
1737750421075790600,11.20679052734375,-0.7487335205078125,-0.51763916015625,-0.5906829833984375
1737750421085858600,11.216858642578124,-0.7289276123046875,-0.481231689453125,-0.6093902587890625
1737750421095926500,11.226926513671875,-0.6904144287109375,-0.4626922607421875,-0.637481689453125
1737750421105994500,11.236994384765625,-0.6463165283203125,-0.4615020751953125,-0.667022705078125
1737750421116061400,11.2470615234375,-0.611724853515625,-0.4667205810546875,-0.684906005859375
1737750421126129700,11.257129638671875,-0.598052978515625,-0.4815826416015625,-0.694427490234375
1737750421136197600,11.26719775390625,-0.5891265869140625,-0.48236083984375,-0.6723480224609375
1737750421146265600,11.277265625,-0.5962982177734375,-0.4742889404296875,-0.6277313232421875
1737750421156333600,11.28733349609375,-0.6251373291015625,-0.472930908203125,-0.5770263671875
1737750421166401500,11.297401611328125,-0.6485595703125,-0.4788665771484375,-0.534210205078125
1737750421176469500,11.307469482421874,-0.666656494140625,-0.4846038818359375,-0.49810791015625
1737750421186537500,11.317537353515625,-0.707550048828125,-0.4853668212890625,-0.4594573974609375
1737750421196605400,11.32760546875,-0.7571258544921875,-0.4813232421875,-0.4239654541015625
1737750421206673700,11.337673583984374,-0.7818450927734375,-0.46856689453125,-0.39312744140625
1737750421216741600,11.34774169921875,-0.7962799072265625,-0.44500732421875,-0.3739166259765625
1737750421226809600,11.3578095703125,-0.8213653564453125,-0.4143218994140625,-0.3771209716796875
1737750421236877600,11.367877685546874,-0.847015380859375,-0.3940277099609375,-0.394256591796875
1737750421246945500,11.377945556640626,-0.853790283203125,-0.3745574951171875,-0.41314697265625
1737750421257013500,11.388013427734375,-0.8341827392578125,-0.3497772216796875,-0.435516357421875
1737750421267081500,11.39808154296875,-0.803955078125,-0.3221282958984375,-0.46490478515625
1737750421277149400,11.4081494140625,-0.7660369873046875,-0.3018341064453125,-0.4979705810546875
1737750421287217700,11.4182177734375,-0.7402801513671875,-0.28863525390625,-0.52520751953125
1737750421297285600,11.42828564453125,-0.7348175048828125,-0.2865142822265625,-0.527374267578125
1737750421307352600,11.4383525390625,-0.740936279296875,-0.3020172119140625,-0.5169830322265625
1737750421317420500,11.448420654296875,-0.7617340087890625,-0.32489013671875,-0.504608154296875
1737750421327488800,11.45848876953125,-0.7789306640625,-0.34222412109375,-0.4914093017578125
1737750421337556500,11.468556396484376,-0.8024444580078125,-0.3524169921875,-0.4812469482421875
1737750421347624400,11.47862451171875,-0.8136138916015625,-0.3571929931640625,-0.4738006591796875
1737750421357692400,11.4886923828125,-0.793670654296875,-0.36163330078125,-0.476287841796875
1737750421367760600,11.4987607421875,-0.7966461181640625,-0.3709564208984375,-0.4736328125
1737750421377828600,11.50882861328125,-0.807586669921875,-0.3842315673828125,-0.4496917724609375
1737750421387896600,11.518896484375,-0.826995849609375,-0.4067535400390625,-0.4360504150390625
1737750421397964500,11.528964599609376,-0.855987548828125,-0.428863525390625,-0.447540283203125
1737750421408036400,11.539036376953124,-0.8563232421875,-0.4354248046875,-0.477386474609375
1737750421418104300,11.549104248046875,-0.876800537109375,-0.433349609375,-0.516387939453125
1737750421428172300,11.55917236328125,-0.8869476318359375,-0.442840576171875,-0.5517120361328125
1737750421438240500,11.569240478515624,-0.88592529296875,-0.4575653076171875,-0.554962158203125
1737750421448308500,11.57930859375,-0.8964080810546875,-0.46905517578125,-0.544830322265625
1737750421458376400,11.58937646484375,-0.9279022216796875,-0.463897705078125,-0.543548583984375
1737750421468444400,11.5994443359375,-0.979339599609375,-0.4482421875,-0.5628814697265625
1737750421478512600,11.6095126953125,-1.000823974609375,-0.4297027587890625,-0.6056671142578125
1737750421488580400,11.619580322265625,-0.9962005615234375,-0.4085693359375,-0.662689208984375
1737750421498648300,11.6296484375,-0.981231689453125,-0.38739013671875,-0.7126007080078125
1737750421508715300,11.63971533203125,-0.9298553466796875,-0.364654541015625,-0.7384033203125
1737750421518783200,11.649783203125,-0.8704071044921875,-0.3392486572265625,-0.732696533203125
1737750421528851500,11.6598515625,-0.8532867431640625,-0.330841064453125,-0.6934967041015625
1737750421538919400,11.66991943359375,-0.8766632080078125,-0.3508453369140625,-0.633056640625
1737750421548987400,11.6799873046875,-0.8857574462890625,-0.3790740966796875,-0.590301513671875
1737750421559055400,11.690055419921874,-0.875,-0.39031982421875,-0.5923614501953125
1737750421569123600,11.70012353515625,-0.8486785888671875,-0.37750244140625,-0.6281585693359375
1737750421579191600,11.710191650390625,-0.793670654296875,-0.3492584228515625,-0.6838226318359375
1737750421589259300,11.72025927734375,-0.75738525390625,-0.325775146484375,-0.7538604736328125
1737750421599327200,11.7303271484375,-0.69537353515625,-0.333831787109375,-0.8028411865234375
1737750421609395500,11.7403955078125,-0.6221466064453125,-0.3745269775390625,-0.8212432861328125
1737750421619463400,11.75046337890625,-0.57684326171875,-0.43328857421875,-0.837615966796875
1737750421629531400,11.760531494140626,-0.58355712890625,-0.4976806640625,-0.860015869140625
1737750421639599400,11.770599365234375,-0.598114013671875,-0.564666748046875,-0.8876953125
1737750421649667600,11.78066748046875,-0.61199951171875,-0.6103668212890625,-0.913482666015625
1737750421659735600,11.790735595703126,-0.62835693359375,-0.6217803955078125,-0.9238128662109375
1737750421669803300,11.80080322265625,-0.62982177734375,-0.6015777587890625,-0.9108123779296875
1737750421679871200,11.810871337890624,-0.64569091796875,-0.564178466796875,-0.8624267578125
1737750421689939500,11.820939453125,-0.6399078369140625,-0.52947998046875,-0.791107177734375
1737750421700006400,11.83100634765625,-0.6138153076171875,-0.501739501953125,-0.7168121337890625
1737750421710074400,11.841074462890624,-0.6039886474609375,-0.489990234375,-0.6466217041015625
1737750421720142300,11.851142333984376,-0.6462554931640625,-0.5048675537109375,-0.593017578125
1737750421730210600,11.86121044921875,-0.6778106689453125,-0.5395355224609375,-0.555023193359375
1737750421740278500,11.871278564453124,-0.6935882568359375,-0.557708740234375,-0.5303192138671875
1737750421750346500,11.881346435546876,-0.7273406982421875,-0.54742431640625,-0.512542724609375
1737750421760414500,11.89141455078125,-0.7398529052734375,-0.514892578125,-0.4916534423828125
1737750421770482400,11.901482421875,-0.7171630859375,-0.4819488525390625,-0.461456298828125
1737750421780550400,11.91155029296875,-0.704803466796875,-0.463409423828125,-0.424285888671875
1737750421790618400,11.921618408203125,-0.6950531005859375,-0.469635009765625,-0.3824920654296875
1737750421800686300,11.931686279296875,-0.6866912841796875,-0.49078369140625,-0.342254638671875
1737750421810754600,11.941754638671876,-0.67840576171875,-0.5022430419921875,-0.3083953857421875
1737750421820822500,11.951822509765625,-0.6846466064453125,-0.487030029296875,-0.285064697265625
1737750421830890500,11.961890380859375,-0.671356201171875,-0.4332122802734375,-0.2601318359375
1737750421840958500,11.97195849609375,-0.6373138427734375,-0.3361968994140625,-0.219635009765625
1737750421851026400,11.9820263671875,-0.6157684326171875,-0.2207183837890625,-0.172637939453125
1737750421861094400,11.992094482421875,-0.592987060546875,-0.11297607421875,-0.1349029541015625
1737750421871162400,12.002162353515626,-0.5660858154296875,-0.0294189453125,-0.1213531494140625
1737750421881230300,12.012230224609375,-0.540740966796875,0.01666259765625,-0.1549224853515625
1737750421891298600,12.022298583984375,-0.525421142578125,0.0215606689453125,-0.2278289794921875
1737750421901366500,12.032366455078124,-0.533477783203125,-0.0059814453125,-0.3173370361328125
1737750421911433500,12.04243359375,-0.5460662841796875,-0.052490234375,-0.3934173583984375
1737750421921501400,12.05250146484375,-0.5204620361328125,-0.1017913818359375,-0.44580078125
1737750421931569400,12.0625693359375,-0.4872283935546875,-0.146209716796875,-0.4753265380859375
1737750421941637600,12.0726376953125,-0.4583740234375,-0.1966552734375,-0.493377685546875
1737750421951705300,12.082705322265625,-0.4182891845703125,-0.258270263671875,-0.51226806640625
1737750421961773300,12.092773193359376,-0.393463134765625,-0.3326263427734375,-0.5406494140625
1737750421971841300,12.10284130859375,-0.4055633544921875,-0.414337158203125,-0.571685791015625
1737750421981909500,12.112909423828125,-0.41705322265625,-0.4935302734375,-0.5947418212890625
1737750421991977500,12.1229775390625,-0.406402587890625,-0.546783447265625,-0.606109619140625
1737750422002045400,12.13304541015625,-0.395416259765625,-0.556854248046875,-0.6093292236328125
1737750422012113400,12.143113525390625,-0.4014129638671875,-0.5336761474609375,-0.610198974609375
1737750422022181600,12.153181640625,-0.4099578857421875,-0.4981842041015625,-0.6190338134765625
1737750422032249300,12.163249267578125,-0.42169189453125,-0.4798583984375,-0.6439056396484375
1737750422042317300,12.1733173828125,-0.431671142578125,-0.501312255859375,-0.6822662353515625
1737750422052385300,12.18338525390625,-0.4434661865234375,-0.56427001953125,-0.704010009765625
1737750422062453500,12.19345361328125,-0.465240478515625,-0.6458740234375,-0.686920166015625
1737750422072521500,12.203521484375,-0.5049896240234375,-0.73565673828125,-0.6354827880859375
1737750422082589400,12.21358935546875,-0.5200042724609375,-0.82452392578125,-0.5745391845703125
1737750422092657400,12.223657470703126,-0.5154571533203125,-0.8932647705078125,-0.530181884765625
1737750422102725600,12.2337255859375,-0.5103759765625,-0.9351348876953125,-0.5236053466796875
1737750422112793300,12.24379345703125,-0.515472412109375,-0.951873779296875,-0.55450439453125
1737750422122860500,12.253860595703125,-0.523284912109375,-0.9432373046875,-0.608551025390625
1737750422132928300,12.26392822265625,-0.5253448486328125,-0.9200897216796875,-0.660675048828125
1737750422142996500,12.27399658203125,-0.520782470703125,-0.89996337890625,-0.6960296630859375
1737750422153064400,12.284064453125,-0.5385894775390625,-0.8905029296875,-0.720001220703125
1737750422163132400,12.29413232421875,-0.565643310546875,-0.8926849365234375,-0.74749755859375
1737750422173200400,12.304200439453124,-0.55157470703125,-0.88531494140625,-0.7804718017578125
1737750422183268600,12.3142685546875,-0.5156707763671875,-0.86346435546875,-0.82171630859375
1737750422193336600,12.324336669921875,-0.4593963623046875,-0.8506011962890625,-0.869964599609375
1737750422203404500,12.334404541015624,-0.3802032470703125,-0.8719329833984375,-0.926727294921875
1737750422213472300,12.34447216796875,-0.3306121826171875,-0.9173583984375,-0.9682464599609375
1737750422223540500,12.35454052734375,-0.3310089111328125,-0.9688720703125,-0.9897918701171875
1737750422233608400,12.3646083984375,-0.3230438232421875,-0.9852142333984375,-0.9755859375
1737750422243676400,12.374676513671876,-0.2953033447265625,-0.9345245361328125,-0.90673828125
1737750422253744400,12.384744384765625,-0.284881591796875,-0.855804443359375,-0.8267669677734375
1737750422263812600,12.3948125,-0.2834320068359375,-0.796630859375,-0.7719268798828125
1737750422273880600,12.404880615234376,-0.2877960205078125,-0.76629638671875,-0.72943115234375
1737750422283948500,12.414948486328125,-0.2805633544921875,-0.7554931640625,-0.672515869140625
1737750422294016300,12.425016357421875,-0.256256103515625,-0.7602996826171875,-0.6067657470703125
1737750422304084500,12.43508447265625,-0.23199462890625,-0.7885589599609375,-0.54595947265625
1737750422314152400,12.44515234375,-0.2172698974609375,-0.8292083740234375,-0.4904937744140625
1737750422324220400,12.455220458984375,-0.2135772705078125,-0.8485870361328125,-0.4324798583984375
1737750422334288400,12.465288330078126,-0.2235565185546875,-0.835418701171875,-0.37841796875
1737750422344356600,12.475356689453125,-0.2324981689453125,-0.8009490966796875,-0.3430023193359375
1737750422354423600,12.485423583984375,-0.2401275634765625,-0.7670440673828125,-0.34368896484375
1737750422364491500,12.495491455078126,-0.235992431640625,-0.7377471923828125,-0.3813629150390625
1737750422374559500,12.5055595703125,-0.2261505126953125,-0.717376708984375,-0.44232177734375
1737750422384627500,12.51562744140625,-0.2075958251953125,-0.6989593505859375,-0.4946136474609375
1737750422394695400,12.5256953125,-0.1927490234375,-0.6730804443359375,-0.5267181396484375
1737750422404760000,12.535760009765625,-0.1788787841796875,-0.64569091796875,-0.54730224609375
1737750422414828300,12.545828369140626,-0.1717071533203125,-0.628082275390625,-0.571075439453125
1737750422424896300,12.555896240234375,-0.1763763427734375,-0.6305999755859375,-0.6086273193359375
1737750422434964200,12.565964111328125,-0.1868438720703125,-0.6512298583984375,-0.6522064208984375
1737750422445032200,12.5760322265625,-0.174468994140625,-0.6725921630859375,-0.687957763671875
1737750422455100400,12.586100341796875,-0.15655517578125,-0.6858978271484375,-0.7034149169921875
1737750422465168100,12.596168212890625,-0.1656341552734375,-0.706451416015625,-0.6979522705078125
1737750422475236000,12.606236083984374,-0.180999755859375,-0.73541259765625,-0.673126220703125
1737750422485304000,12.616303955078125,-0.17633056640625,-0.7642669677734375,-0.6332244873046875
1737750422495372300,12.626372314453125,-0.1977386474609375,-0.7845611572265625,-0.5926971435546875
1737750422505440300,12.636440185546874,-0.221954345703125,-0.8094329833984375,-0.5651397705078125
1737750422515508200,12.64650830078125,-0.2478790283203125,-0.8337249755859375,-0.54486083984375
1737750422525576200,12.656576171875,-0.2796173095703125,-0.854827880859375,-0.5310516357421875
1737750422535644400,12.66664453125,-0.3378143310546875,-0.865386962890625,-0.51861572265625
1737750422545712000,12.676712158203125,-0.365997314453125,-0.8505706787109375,-0.5036773681640625
1737750422555780000,12.686780029296875,-0.3971710205078125,-0.8058013916015625,-0.48779296875
1737750422565848000,12.69684814453125,-0.416839599609375,-0.7533721923828125,-0.48876953125
1737750422575916300,12.706916259765626,-0.4273223876953125,-0.7102508544921875,-0.5125732421875
1737750422585983200,12.716983154296875,-0.426605224609375,-0.683441162109375,-0.5543212890625
1737750422596051200,12.72705126953125,-0.4156951904296875,-0.6676483154296875,-0.6044464111328125
1737750422606119200,12.737119140625,-0.3887939453125,-0.657257080078125,-0.659881591796875
1737750422616187100,12.747187255859375,-0.3637237548828125,-0.6587371826171875,-0.7180633544921875
1737750422626255400,12.75725537109375,-0.3318328857421875,-0.676788330078125,-0.774383544921875
1737750422636323300,12.7673232421875,-0.291717529296875,-0.7085113525390625,-0.8220062255859375
1737750422646391000,12.77739111328125,-0.28302001953125,-0.7442779541015625,-0.8515167236328125
1737750422656459000,12.787458984375,-0.282318115234375,-0.7729339599609375,-0.858367919921875
1737750422666527200,12.79752734375,-0.291351318359375,-0.7879638671875,-0.845611572265625
1737750422676595200,12.80759521484375,-0.25518798828125,-0.776885986328125,-0.8288421630859375
1737750422686663200,12.8176630859375,-0.24591064453125,-0.744720458984375,-0.8219451904296875
1737750422696731100,12.827731201171876,-0.215576171875,-0.714508056640625,-0.819427490234375
1737750422706799400,12.83779931640625,-0.187408447265625,-0.687713623046875,-0.823638916015625
1737750422716867300,12.847867431640625,-0.224395751953125,-0.677490234375,-0.8400115966796875
1737750422726935000,12.85793505859375,-0.2581634521484375,-0.6844635009765625,-0.846343994140625
1737750422737003000,12.8680029296875,-0.2716522216796875,-0.6946258544921875,-0.8226776123046875
1737750422747071200,12.8780712890625,-0.288360595703125,-0.7017364501953125,-0.7716064453125
1737750422757139200,12.88813916015625,-0.293731689453125,-0.714569091796875,-0.7155609130859375
1737750422767207200,12.898207275390625,-0.29730224609375,-0.7313385009765625,-0.6656951904296875
1737750422777275100,12.908275146484375,-0.3111419677734375,-0.7480010986328125,-0.62347412109375
1737750422787343400,12.91834326171875,-0.3468017578125,-0.7614288330078125,-0.5862274169921875
1737750422797411300,12.928411376953125,-0.3896636962890625,-0.7662353515625,-0.5517120361328125
1737750422807479000,12.93847900390625,-0.4122467041015625,-0.7584075927734375,-0.5190277099609375
1737750422817547000,12.948547119140626,-0.408935546875,-0.7427520751953125,-0.49395751953125
1737750422827615200,12.958615234375,-0.410858154296875,-0.736419677734375,-0.481719970703125
1737750422837683200,12.96868310546875,-0.437255859375,-0.7531585693359375,-0.4881744384765625
1737750422847750100,12.978750244140626,-0.471832275390625,-0.789642333984375,-0.5068359375
1737750422857818000,12.988818115234375,-0.5131378173828125,-0.819976806640625,-0.5182647705078125
1737750422867886000,12.998885986328125,-0.5460052490234375,-0.8354339599609375,-0.515167236328125
