time,seconds_elapsed,z,y,x
1737750410031284200,0.1622841796875,-0.0273906122893095,0.02020993083715439,-0.035481296479701996
1737750410041352200,0.172352294921875,-0.0416576974093914,0.026278208941221237,-0.03062235750257969
1737750410051419100,0.182419189453125,-0.0477086678147316,0.02569151483476162,-0.0198618546128273
1737750410061487000,0.192487060546875,-0.054305583238601685,0.016269784420728683,-0.017485516145825386
1737750410071555300,0.202555419921875,-0.05877543240785599,0.01224734541028738,-0.009455819614231586
1737750410081623300,0.212623291015625,-0.06285592913627625,-0.009982060641050339,-0.007712780963629484
1737750410091691300,0.222691162109375,-0.06023750826716423,-0.02219398505985737,0.002840793924406171
1737750410101759200,0.23275927734375,-0.061650846153497696,-0.03623470291495323,0.0065508438274264336
1737750410111827500,0.242827392578125,-0.060198623687028885,-0.05646460875868797,0.006761499680578709
1737750410121895400,0.2528955078125,-0.05323952063918114,-0.05933522805571556,0.006277336739003658
1737750410131963100,0.262963134765625,-0.03633563593029976,-0.05928462743759155,0.005687180440872908
1737750410142031000,0.273031005859375,-0.02160169929265976,-0.053221408277750015,0.0014024205738678575
1737750410152099300,0.283099365234375,-0.01309023518115282,-0.04841972887516022,0.0016460998449474573
1737750410162167300,0.293167236328125,-0.010791394859552383,-0.04679600149393082,0.0031427964568138123
1737750410172234200,0.303234130859375,-0.02027038484811783,-0.03931411728262901,0.005013667047023773
1737750410182302200,0.31330224609375,-0.024575384333729744,-0.020712468773126602,0.006882140878587961
1737750410192370400,0.323370361328125,-0.02502572536468506,-0.002581934677436948,0.00018722022650763392
1737750410202438400,0.3334384765625,-0.018797123804688454,0.013754960149526596,-0.0005997438565827906
1737750410212506400,0.34350634765625,-0.017183780670166016,0.02785826288163662,0.001981924520805478
1737750410222574300,0.35357421875,-0.020245883613824844,0.031789086759090424,0.004837099462747574
1737750410232642300,0.363642333984375,-0.026005234569311142,0.025966087356209755,0.013064935803413391
1737750410242710300,0.373710205078125,-0.0268944650888443,0.028617262840270996,0.01865198090672493
1737750410252778200,0.3837783203125,-0.02756797894835472,0.031195202842354774,0.023435285314917564
1737750410262846200,0.39384619140625,-0.02906547300517559,0.026076873764395714,0.023198530077934265
1737750410272914400,0.40391455078125,-0.026545323431491852,0.012161857448518276,0.026551982387900352
1737750410282982400,0.413982421875,-0.02461586333811283,-0.002763828495517373,0.036976926028728485
1737750410293050400,0.42405029296875,-0.02449761889874935,-0.01619681343436241,0.043464917689561844
1737750410303117300,0.434117431640625,-0.016039419919252396,-0.025356754660606384,0.049487657845020294
1737750410313185300,0.444185302734375,-0.003085005795583129,-0.04032851383090019,0.04205530881881714
1737750410323253500,0.45425341796875,-0.012510199099779129,-0.030180007219314575,0.045290250331163406
1737750410333321200,0.4643212890625,-0.015184545889496803,-0.031319838017225266,0.04537653550505638
1737750410343389200,0.47438916015625,-0.017912155017256737,-0.030246319249272346,0.034938011318445206
1737750410353457200,0.48445703125,-0.013904097490012646,-0.025741582736372948,0.025293905287981033
1737750410363525400,0.494525390625,-0.01960565894842148,-0.02943512052297592,0.03473134711384773
1737750410373593300,0.50459326171875,-0.03593003749847412,-0.03675082325935364,0.04520955681800842
1737750410383661300,0.514661376953125,-0.04297942668199539,-0.0593797042965889,0.05361688882112503
1737750410393728500,0.524728515625,-0.052914880216121674,-0.06022658944129944,0.0711335614323616
1737750410403796700,0.534796630859375,-0.049911100417375565,-0.06265139579772949,0.09717608243227005
1737750410413864700,0.54486474609375,-0.04481247812509537,-0.06820302456617355,0.11696363985538483
1737750410423931600,0.554931640625,-0.059354402124881744,-0.0904148519039154,0.12884213030338287
1737750410433999600,0.56499951171875,-0.06912953406572342,-0.14181599020957947,0.15007898211479187
1737750410444067600,0.575067626953125,-0.041852906346321106,-0.19072654843330383,0.17323516309261322
1737750410454135600,0.585135498046875,-0.04668654501438141,-0.25034433603286743,0.19195346534252167
1737750410464203500,0.59520361328125,-0.05471224710345268,-0.26282602548599243,0.1749957799911499
1737750410474271500,0.605271484375,-0.04105262830853462,-0.295322984457016,0.18191973865032196
1737750410484339500,0.61533935546875,-0.08501768857240677,-0.2522338330745697,0.18322628736495972
1737750410494407700,0.62540771484375,-0.07696562260389328,-0.24027198553085327,0.16363580524921417
1737750410504475600,0.6354755859375,-0.04011865705251694,-0.19849258661270142,0.1338275671005249
1737750410514543600,0.645543701171875,-0.039322372525930405,-0.13365472853183746,0.10285075008869171
1737750410524611600,0.655611572265625,-0.07063315808773041,-0.05186159908771515,0.07851318269968033
1737750410534679600,0.665679443359375,-0.10078813135623932,0.03863714262843132,0.06650605797767639
1737750410544747500,0.67574755859375,-0.1108093410730362,0.08994613587856293,0.055752743035554886
1737750410554814500,0.685814453125,-0.09085240960121155,0.11538384854793549,0.04121002182364464
1737750410564882400,0.69588232421875,-0.09104548394680023,0.13678021728992462,0.035409390926361084
1737750410574950400,0.705950439453125,-0.06831967085599899,0.16237398982048035,0.04331578314304352
1737750410585018600,0.7160185546875,-0.09796171635389328,0.18922851979732513,0.0673753097653389
1737750410595086600,0.726086669921875,-0.07670356333255768,0.2297823280096054,0.08614926785230637
1737750410605154600,0.736154541015625,-0.0734928622841835,0.2759530246257782,0.09092111885547638
1737750410615222500,0.746222412109375,-0.07686974853277206,0.283328652381897,0.10065630078315735
1737750410625290800,0.756290771484375,-0.06343117356300354,0.2767607569694519,0.10152875632047653
1737750410635358500,0.7663583984375,-0.06747544556856155,0.2611176073551178,0.11165329068899155
1737750410645426400,0.776426513671875,-0.056899234652519226,0.2212224006652832,0.13440734148025513
1737750410655494400,0.786494384765625,-0.043478768318891525,0.1809319704771042,0.1538470834493637
1737750410665562600,0.796562744140625,-0.03152596950531006,0.1419864296913147,0.15620318055152893
1737750410675630600,0.806630615234375,-0.05390344560146332,0.10222437232732773,0.14714418351650238
1737750410685697500,0.816697509765625,-0.07356929033994675,0.03756388649344444,0.14417502284049988
1737750410695765500,0.826765625,-0.09845706820487976,-0.0035428032279014587,0.12757261097431183
1737750410705833700,0.836833740234375,-0.11794314533472061,-0.08347225934267044,0.1366337388753891
1737750410715901700,0.846901611328125,-0.08210978657007217,-0.12281060963869095,0.12622691690921783
1737750410725969700,0.8569697265625,0.04584738239645958,-0.14678464829921722,0.11075447499752045
1737750410736037400,0.867037353515625,0.06138905882835388,-0.153842031955719,0.10027280449867249
1737750410746105600,0.877105712890625,0.02418150193989277,-0.1517043113708496,0.10526037961244583
1737750410756173600,0.887173583984375,0.021252024918794632,-0.1919071227312088,0.12476643174886703
1737750410766241500,0.897241455078125,0.030314762145280838,-0.23058368265628815,0.14008626341819763
1737750410776309500,0.9073095703125,0.07244783639907837,-0.26044195890426636,0.12006302177906036
1737750410786377700,0.917377685546875,0.08834078162908554,-0.2662479281425476,0.0974956601858139
1737750410796445700,0.92744580078125,0.09345085173845291,-0.2726821303367615,0.10234528034925461
1737750410806513700,0.937513671875,0.08500038087368011,-0.25730448961257935,0.11153851449489594
1737750410816580600,0.94758056640625,0.09005532413721085,-0.22179551422595978,0.10959599912166595
1737750410826648600,0.957648681640625,0.121089406311512,-0.19563128054141998,0.10313570499420166
1737750410836716500,0.967716552734375,0.143719881772995,-0.14338965713977814,0.08118460327386856
1737750410846784500,0.977784423828125,0.15747590363025665,-0.08995545655488968,0.06834869831800461
1737750410856852500,0.9878525390625,0.1669791340827942,-0.04374854639172554,0.07231947034597397
1737750410866920400,0.99792041015625,0.14667652547359467,-0.00953970942646265,0.0788561999797821
1737750410876988700,1.00798876953125,0.14122717082500458,0.014728345908224583,0.08033638447523117
1737750410887056600,1.018056640625,0.11815300583839417,0.035224299877882004,0.07665988802909851
1737750410897124600,1.02812451171875,0.07472323626279831,0.04099483788013458,0.07443055510520935
1737750410907192600,1.038192626953125,0.043778374791145325,0.028298217803239822,0.07601327449083328
1737750410917260500,1.048260498046875,0.03254222869873047,-0.004791026934981346,0.07545773684978485
1737750410927328500,1.05832861328125,0.02870088629424572,-0.012001534923911095,0.07284251600503922
1737750410937395500,1.0683955078125,0.03834152966737747,-0.01661626063287258,0.06410042196512222
1737750410947463400,1.07846337890625,0.05086131766438484,-0.024342890828847885,0.05291115120053291
1737750410957531400,1.088531494140625,0.00469541922211647,-0.022943664342164993,0.038954056799411774
1737750410967599600,1.098599609375,-0.04055435210466385,-0.04772917181253433,0.03863847255706787
1737750410977667600,1.10866748046875,-0.04655817896127701,-0.054312508553266525,0.036320723593235016
1737750410987735600,1.118735595703125,-0.033969949930906296,-0.021710621193051338,0.02648487128317356
1737750410997803500,1.128803466796875,-0.022669093683362007,0.02835201285779476,0.018255969509482384
1737750411007871700,1.138871826171875,-0.015447133220732212,0.06960970163345337,0.010433466173708439
1737750411017939500,1.148939453125,-0.0589916817843914,0.10353811085224152,0.009738913737237453
1737750411028007400,1.15900732421875,-0.08601078391075134,0.10308590531349182,0.014938469044864178
1737750411038075400,1.169075439453125,-0.05753839388489723,0.07445692270994186,0.029139243066310883
1737750411048143600,1.1791435546875,-0.04929244890809059,0.04682929068803787,0.029935261234641075
1737750411058211600,1.189211669921875,-0.08925317972898483,0.025053421035408974,0.022313028573989868
1737750411068278500,1.199278564453125,-0.10528168082237244,-0.027295803651213646,0.030534207820892334
1737750411078346500,1.209346435546875,-0.09298613667488098,-0.08352179080247879,0.03531324863433838
1737750411088414700,1.219414794921875,-0.07606680691242218,-0.13032418489456177,0.0380331352353096
1737750411098482700,1.229482666015625,-0.07716216146945953,-0.16344645619392395,0.030492128804326057
1737750411108550700,1.239550537109375,-0.08439024537801743,-0.1825474351644516,0.02430374175310135
1737750411118618400,1.249618408203125,-0.0931890681385994,-0.20892098546028137,0.025622272863984108
1737750411128686600,1.2596865234375,-0.09636861085891724,-0.23734597861766815,0.028906483203172684
1737750411138754600,1.269754638671875,-0.10514825582504272,-0.27318787574768066,0.028716066852211952
1737750411148822500,1.279822509765625,-0.12335042655467987,-0.2948912978172302,0.01299223117530346
1737750411158890500,1.289890380859375,-0.1413739025592804,-0.2645496428012848,0.0008439557277597487
1737750411168958700,1.299958740234375,-0.15568679571151733,-0.22795593738555908,-0.004266384057700634
1737750411179026700,1.310026611328125,-0.17058904469013214,-0.16559375822544098,-0.02858690358698368
1737750411189093600,1.32009375,-0.1968906968832016,-0.10443985462188721,-0.044450290501117706
1737750411199161600,1.33016162109375,-0.26579946279525757,-0.06783044338226318,-0.04645564779639244
1737750411209229600,1.3402294921875,-0.3619113266468048,-0.03975407034158707,-0.051948416978120804
1737750411219297500,1.350297607421875,-0.39081037044525146,-0.06623734533786774,-0.027414048090577126
1737750411229365500,1.360365478515625,-0.3252699673175812,-0.1588921844959259,0.02034229040145874
1737750411239433500,1.37043359375,-0.19895011186599731,-0.2749394178390503,0.05775890499353409
1737750411249501400,1.38050146484375,-0.06898785382509232,-0.34590548276901245,0.06671831011772156
1737750411259569700,1.390569580078125,0.008842493407428265,-0.34971460700035095,0.05706221982836723
1737750411269637600,1.4006376953125,0.009883789345622063,-0.28648796677589417,0.03759131580591202
1737750411279705600,1.41070556640625,-0.024396153166890144,-0.1835373342037201,0.011798336170613766
1737750411289773600,1.420773681640625,-0.05684623867273331,-0.055930111557245255,-0.025143969804048538
1737750411299840500,1.430840576171875,-0.0842706710100174,0.09102445095777512,-0.056290172040462494
1737750411309908700,1.44090869140625,-0.11147459596395493,0.21478420495986938,-0.07649078220129013
1737750411319976400,1.4509765625,-0.14406903088092804,0.3116915822029114,-0.08134252578020096
1737750411330044400,1.46104443359375,-0.16476312279701233,0.3558689057826996,-0.07786763459444046
1737750411340112400,1.4711123046875,-0.1602565199136734,0.333615243434906,-0.04996063560247421
1737750411350180600,1.4811806640625,-0.12930579483509064,0.29565268754959106,-0.026922959834337234
1737750411360248600,1.49124853515625,-0.09005852043628693,0.2869358956813812,-0.0325118713080883
1737750411370316500,1.501316650390625,-0.060563478618860245,0.28549060225486755,-0.049141447991132736
1737750411380384500,1.511384521484375,-0.04313681647181511,0.2680743336677551,-0.056536514312028885
1737750411390452500,1.521452392578125,-0.024994298815727234,0.21121157705783844,-0.050272490829229355
1737750411400520400,1.5315205078125,0.0067540425807237625,0.11948565393686295,-0.028784243389964104
1737750411410588200,1.541588134765625,0.03269243240356445,0.035705000162124634,-0.008185491897165775
1737750411420655400,1.5516552734375,0.038432344794273376,-0.030070817098021507,0.001288171042688191
1737750411430723300,1.561723388671875,0.03743205964565277,-0.053401172161102295,-0.01170352753251791
1737750411440791300,1.571791259765625,0.037822213023900986,-0.062238872051239014,-0.03134700283408165
1737750411450859300,1.581859375,0.04129257798194885,-0.07413574308156967,-0.035824842751026154
1737750411460927200,1.59192724609375,0.05967984348535538,-0.08164399862289429,-0.020868264138698578
1737750411470995500,1.601995361328125,0.0752984806895256,-0.06327830255031586,-0.008723982609808445
1737750411481063400,1.6120634765625,0.09586288034915924,-0.03677346184849739,0.007459514308720827
1737750411491131400,1.62213134765625,0.10116682946681976,0.008018244989216328,0.005256014876067638
1737750411501199400,1.632199462890625,0.09724585711956024,0.040108535438776016,0.00007909588020993397
1737750411511267300,1.642267333984375,0.09084335714578629,0.05423314496874809,0.0008290420519188046
1737750411521335300,1.652335205078125,0.09279518574476242,0.04296531155705452,0.012078233994543552
1737750411531402200,1.66240234375,0.08442806452512741,0.00404614070430398,0.0225596372038126
1737750411541470200,1.67247021484375,0.05631653591990471,-0.037821147590875626,0.024046214297413826
1737750411551538400,1.682538330078125,0.00603472301736474,-0.11302535235881805,0.024754881858825684
1737750411561606400,1.6926064453125,-0.02468137815594673,-0.1955106407403946,0.022121546790003777
1737750411571674400,1.70267431640625,-0.04544524475932121,-0.2698027193546295,0.012132029980421066
1737750411581742300,1.712742431640625,-0.05191060155630112,-0.32137322425842285,0.0062712118960917
1737750411591810600,1.722810546875,-0.03813247010111809,-0.33441421389579773,0.0038072550669312477
1737750411601878500,1.73287841796875,-0.031445808708667755,-0.3139861524105072,0.0010221211705356836
1737750411611946200,1.7429462890625,-0.019577961415052414,-0.26410993933677673,-0.004236023873090744
1737750411622014200,1.75301416015625,-0.0016580841038376093,-0.21280626952648163,-0.004311125259846449
1737750411632082400,1.76308251953125,0.01888687163591385,-0.15164226293563843,0.0005033374181948602
1737750411642150400,1.773150390625,0.029742982238531113,-0.09099781513214111,0.013493171893060207
1737750411652217300,1.78321728515625,0.024892566725611687,-0.04385747015476227,0.02803749404847622
1737750411662285300,1.793285400390625,0.0044173854403197765,-0.015145663172006607,0.03375663235783577
1737750411672353300,1.803353271484375,-0.02082139253616333,-0.012407933361828327,0.0393625870347023
1737750411682421500,1.81342138671875,-0.03682432696223259,-0.02707396261394024,0.033673275262117386
1737750411692489500,1.823489501953125,-0.04073357954621315,-0.044024448841810226,0.024595890194177628
1737750411702557400,1.833557373046875,-0.04689027741551399,-0.06375740468502045,0.017183247953653336
1737750411712625200,1.843625244140625,-0.05271487683057785,-0.08136329799890518,0.014125938527286053
1737750411722693400,1.853693359375,-0.06305992603302002,-0.08715380728244781,0.015341405756771564
1737750411732761300,1.86376123046875,-0.07294211536645889,-0.09790339320898056,0.020474914461374283
1737750411742829300,1.873829345703125,-0.06996390223503113,-0.10411015897989273,0.01997237652540207
1737750411752897300,1.883897216796875,-0.06017252802848816,-0.11202932894229889,0.023333551362156868
1737750411762964200,1.893964111328125,-0.04783809557557106,-0.09866239130496979,0.026988741010427475
1737750411773032400,1.904032470703125,-0.03320908546447754,-0.0632503405213356,0.018149709329009056
1737750411783100400,1.914100341796875,-0.004690092988312244,-0.021413147449493408,0.01206651609390974
1737750411793168400,1.92416845703125,0.021643243730068207,0.015930229797959328,0.020599817857146263
1737750411803236400,1.934236328125,0.03008972480893135,0.048354484140872955,0.03454812243580818
1737750411813304300,1.94430419921875,0.023154055699706078,0.0713823065161705,0.04716325178742409
1737750411823372300,1.954372314453125,0.024873126298189163,0.0839897096157074,0.055208392441272736
1737750411833440300,1.964440185546875,0.031254325062036514,0.09636488556861877,0.05227572098374367
1737750411843508200,1.97450830078125,0.031328629702329636,0.10645000636577606,0.05393194034695625
1737750411853576400,1.984576416015625,0.03508394956588745,0.11440247297286987,0.0585583858191967
1737750411863644400,1.99464453125,0.02997254580259323,0.12429238855838776,0.06814070791006088
1737750411873711400,2.00471142578125,0.019701533019542694,0.12579947710037231,0.07225955277681351
1737750411883779300,2.014779296875,-0.000672181835398078,0.1276940405368805,0.06866561621427536
1737750411893847600,2.02484765625,-0.020234165713191032,0.12650202214717865,0.06450149416923523
1737750411903915500,2.03491552734375,-0.0379822701215744,0.11892984807491302,0.05752534419298172
1737750411913983200,2.044983154296875,-0.057983674108982086,0.096310555934906,0.053163617849349976
1737750411924051200,2.05505126953125,-0.06237735599279404,0.08369410037994385,0.05287759751081467
1737750411934119400,2.065119384765625,-0.05017262324690819,0.07961679995059967,0.057018812745809555
1737750411944187400,2.0751875,-0.03169694170355797,0.0663105770945549,0.05805105343461037
1737750411954255400,2.08525537109375,-0.01818113401532173,0.03623576834797859,0.059414856135845184
1737750411964323300,2.0953232421875,-0.020712735131382942,0.017854098230600357,0.060997575521469116
1737750411974391600,2.1053916015625,-0.03935433179140091,0.010311493650078773,0.055145811289548874
1737750411984458500,2.11545849609375,-0.05060964822769165,-0.002983273006975651,0.05145866423845291
1737750411994526500,2.1255263671875,-0.04452352598309517,-0.017180318012833595,0.053576141595840454
1737750412004594400,2.135594482421875,-0.032227177172899246,-0.01745382510125637,0.05455591902136803
1737750412014662100,2.145662109375,-0.01973535493016243,-0.005508482456207275,0.058696337044239044
1737750412024730400,2.15573046875,-0.01139939483255148,0.02593759074807167,0.06545490771532059
1737750412034798300,2.16579833984375,-0.014752048067748547,0.06172887608408928,0.06907813996076584
1737750412044866300,2.1758662109375,-0.020269319415092468,0.09175175428390503,0.06462319940328598
1737750412054934300,2.185934326171875,-0.027751736342906952,0.10399031639099121,0.06674787402153015
1737750412065002500,2.19600244140625,-0.037341512739658356,0.09740378707647324,0.06862246990203857
1737750412075070500,2.206070556640625,-0.051062386482954025,0.07440206408500671,0.06547754257917404
1737750412085138400,2.216138427734375,-0.05820418521761894,0.03435264900326729,0.043416980654001236
1737750412095205400,2.226205322265625,-0.05800151824951172,-0.037151630967855453,0.013976535759866238
1737750412105273300,2.2362734375,-0.05335536599159241,-0.1421949565410614,-0.00800040178000927
1737750412115341300,2.24634130859375,-0.048529718071222305,-0.24506887793540955,-0.01661253161728382
1737750412125409300,2.2564091796875,-0.050331614911556244,-0.343181848526001,-0.030845796689391136
1737750412135477200,2.266477294921875,-0.06459523737430573,-0.42545196413993835,-0.05788913369178772
1737750412145545200,2.276545166015625,-0.07911479473114014,-0.4504750370979309,-0.10454797744750977
1737750412155613400,2.286613525390625,-0.09725997596979141,-0.4528210163116455,-0.1433049589395523
1737750412165681400,2.296681396484375,-0.11990110576152802,-0.4270898103713989,-0.1472216695547104
1737750412175749400,2.306749267578125,-0.142671138048172,-0.34667858481407166,-0.09748154878616333
1737750412185817300,2.3168173828125,-0.16971074044704437,-0.26109179854393005,-0.046672698110342026
1737750412195885300,2.32688525390625,-0.19525471329689026,-0.21616213023662567,-0.04002145305275917
1737750412205952500,2.336952392578125,-0.22281017899513245,-0.2191256880760193,-0.07403561472892761
1737750412216020200,2.347020263671875,-0.2604054808616638,-0.22341737151145935,-0.10404810309410095
1737750412226088200,2.357088134765625,-0.32517701387405396,-0.21026268601417542,-0.08489944785833359
1737750412236156400,2.367156494140625,-0.4250141382217407,-0.16907237470149994,-0.03907283395528793
1737750412246224400,2.377224365234375,-0.539229154586792,-0.17465463280677795,-0.01882535219192505
1737750412256292400,2.387292236328125,-0.6506645679473877,-0.1446663737297058,-0.0403897687792778
1737750412266360300,2.3973603515625,-0.7206245064735413,-0.0928146243095398,-0.08196357637643814
1737750412276428500,2.407428466796875,-0.6883509755134583,0.007808920927345753,-0.14042794704437256
1737750412286496500,2.41749658203125,-0.5768020749092102,0.08267118036746979,-0.2369781881570816
1737750412296564200,2.427564208984375,-0.47242000699043274,0.2646510899066925,-0.2058895081281662
1737750412306631400,2.43763134765625,-0.45162126421928406,0.41817009449005127,-0.10352905839681625
1737750412316699400,2.447699462890625,-0.5330820083618164,0.6394206881523132,0.0075724320486187935
1737750412326767400,2.457767333984375,-0.6857727766036987,0.8251988291740417,0.1037072241306305
1737750412336835300,2.46783544921875,-0.8601323366165161,0.9259797930717468,0.21346327662467957
1737750412346903300,2.4779033203125,-0.9868186116218567,0.9696353673934937,0.32357752323150635
1737750412356971300,2.48797119140625,-1.0159286260604858,0.9785641431808472,0.39625784754753113
1737750412367039500,2.49803955078125,-0.9563621878623962,1.0369009971618652,0.46188586950302124
1737750412377107500,2.508107421875,-0.8288447260856628,1.1349401473999023,0.4887811243534088
1737750412387175400,2.518175537109375,-0.5584113597869873,1.0998245477676392,0.5099809765815735
1737750412397243600,2.52824365234375,-0.21049945056438446,0.8859609961509705,0.5803773403167725
1737750412407311600,2.5383115234375,0.010599114932119846,0.7275242209434509,0.6527551412582397
1737750412417378600,2.548378662109375,0.12523354589939117,0.5880115628242493,0.696959376335144
1737750412427446500,2.558446533203125,0.161799818277359,0.5140412449836731,0.6946640014648438
1737750412437514800,2.5685146484375,0.1463649421930313,0.4586019217967987,0.6658158302307129
1737750412447582700,2.578582763671875,0.14940254390239716,0.17382532358169556,0.699959397315979
1737750412457650700,2.588650634765625,0.11992480605840683,0.08320780098438263,0.7027434706687927
1737750412467718700,2.59871875,0.06928186863660812,0.17845283448696136,0.6586604714393616
1737750412477787000,2.608786865234375,0.029558956623077393,0.32747161388397217,0.623439371585846
1737750412487854600,2.6188544921875,0.03628157451748848,0.4826151132583618,0.6189281940460205
1737750412497922600,2.628922607421875,0.09519869089126587,0.6684156060218811,0.6362760663032532
1737750412507990500,2.638990478515625,0.19745555520057678,0.8752457499504089,0.6482701301574707
1737750412518057500,2.649057373046875,0.29703301191329956,1.1104804277420044,0.6446082592010498
1737750412528125700,2.659125732421875,0.37082067131996155,1.3532565832138062,0.6260556578636169
1737750412538193700,2.669193603515625,0.3946034908294678,1.5954585075378418,0.6043176054954529
1737750412548261600,2.67926171875,0.40140655636787415,1.7998428344726562,0.588621973991394
1737750412558329600,2.68932958984375,0.40176981687545776,1.9203015565872192,0.5582371950149536
1737750412568397800,2.699397705078125,0.39546531438827515,1.929715871810913,0.5168676376342773
1737750412578465800,2.7094658203125,0.3750263452529907,1.8409851789474487,0.4746594727039337
1737750412588533800,2.71953369140625,0.3293613791465759,1.654759168624878,0.42608392238616943
1737750412598601500,2.7296015625,0.26688629388809204,1.391924262046814,0.34681814908981323
1737750412608669700,2.739669677734375,0.1965298354625702,1.086240530014038,0.25090011954307556
1737750412618737700,2.749737548828125,0.12419678270816803,0.7661024928092957,0.1532129943370819
1737750412628804600,2.7598046875,0.06037279590964317,0.4597364366054535,0.07392215728759766
1737750412638872600,2.76987255859375,0.016811205074191093,0.1745891124010086,0.03350389748811722
1737750412648940500,2.7799404296875,0.011364773847162724,-0.07360391318798065,0.03941052407026291
1737750412659008800,2.7900087890625,0.041665419936180115,-0.27628591656684875,0.0694403275847435
1737750412669076700,2.80007666015625,0.10095564275979996,-0.4118397533893585,0.10921916365623474
1737750412679144700,2.810144775390625,0.1762131154537201,-0.47695642709732056,0.11083490401506424
1737750412689212700,2.820212646484375,0.24645371735095978,-0.4333588778972626,0.11134277284145355
1737750412699280600,2.83028076171875,0.3016836941242218,-0.30426669120788574,0.0984533354640007
1737750412709348600,2.8403486328125,0.33403682708740234,-0.13238520920276642,0.05884387716650963
1737750412719415600,2.85041552734375,0.3583930432796478,0.04781892150640488,0.00851732213050127
1737750412729483500,2.8604833984375,0.3857961595058441,0.2079654484987259,-0.05530932918190956
1737750412739551700,2.8705517578125,0.4158904254436493,0.3366869390010834,-0.1096002608537674
1737750412749619700,2.88061962890625,0.4562026858329773,0.4406631290912628,-0.13415034115314484
1737750412759687700,2.890687744140625,0.4988798499107361,0.5208205580711365,-0.15577787160873413
1737750412769755600,2.900755615234375,0.5387199521064758,0.5912292003631592,-0.17749515175819397
1737750412779823900,2.910823974609375,0.5872917175292969,0.6423352956771851,-0.21758319437503815
1737750412789891800,2.920891845703125,0.6500147581100464,0.6949585676193237,-0.27121472358703613
1737750412799959600,2.93095947265625,0.730360746383667,0.7458856105804443,-0.29958832263946533
1737750412810027500,2.941027587890625,0.8191843628883362,0.8017619252204895,-0.2879452407360077
1737750412820095700,2.951095703125,0.9056185483932495,0.8199819922447205,-0.26586204767227173
1737750412830162700,2.96116259765625,0.9778696298599243,0.7993283271789551,-0.24561935663223267
1737750412840230700,2.971230712890625,1.0120717287063599,0.7262941002845764,-0.25350257754325867
1737750412850298600,2.981298583984375,0.978579580783844,0.5866200923919678,-0.3203015923500061
1737750412860366600,2.99136669921875,0.8434857130050659,0.43996351957321167,-0.40775418281555176
1737750412870434800,3.001434814453125,0.610292911529541,0.34618085622787476,-0.4666156470775604
1737750412880502800,3.011502685546875,0.38419827818870544,0.2998461127281189,-0.4970073699951172
1737750412890570800,3.02157080078125,0.2835795283317566,0.2887979745864868,-0.49571600556373596
1737750412900638500,3.031638427734375,0.33618786931037903,0.2603122889995575,-0.4649389088153839
1737750412910706700,3.041706787109375,0.47338834404945374,0.21271440386772156,-0.42178159952163696
1737750412920774700,3.051774658203125,0.6385077834129333,0.07801863551139832,-0.35746651887893677
1737750412930841600,3.061841552734375,0.7420253753662109,-0.06035308912396431,-0.3342946171760559
1737750412940909600,3.07190966796875,0.6594160199165344,0.4262077808380127,-0.4447135329246521
1737750412950977500,3.0819775390625,0.5318723917007446,0.33405601978302,-0.5852541327476501
1737750412961045800,3.092045654296875,0.44921374320983887,0.1161780059337616,-0.5193955302238464
1737750412971113700,3.10211376953125,0.3975798487663269,0.5488266348838806,-0.5172324776649475
1737750412981181700,3.112181640625,0.34526631236076355,0.6737155914306641,-0.6338850855827332
1737750412991250000,3.12225,0.30721932649612427,0.562543511390686,-0.7404059171676636
1737750413001317600,3.132317626953125,0.3070289194583893,0.5763258934020996,-0.7495877146720886
1737750413011385600,3.142385498046875,0.33434948325157166,0.732386589050293,-0.730578601360321
1737750413021453600,3.15245361328125,0.4079262316226959,0.8562313318252563,-0.7583329677581787
1737750413031520500,3.1625205078125,0.541032075881958,0.8885868787765503,-0.8136862516403198
1737750413041588700,3.172588623046875,0.695245087146759,0.9945257902145386,-0.8154737949371338
1737750413051656700,3.18265673828125,0.8314623236656189,1.073091745376587,-0.764961302280426
1737750413061724700,3.192724609375,0.8834192752838135,1.1754380464553833,-0.7227779030799866
1737750413071792600,3.202792724609375,0.8498898148536682,1.3474268913269043,-0.746283233165741
1737750413081860900,3.21286083984375,0.7509424686431885,1.5294609069824219,-0.7536085247993469
1737750413091928800,3.2229287109375,0.6388223171234131,1.5206729173660278,-0.8140846490859985
1737750413101996500,3.23299658203125,0.5870339274406433,1.4018616676330566,-0.8684073090553284
1737750413112064500,3.243064453125,0.5631080865859985,1.2468533515930176,-0.885926365852356
1737750413122132700,3.2531328125,0.5386877059936523,1.094299554824829,-0.9008062481880188
1737750413132199700,3.26319970703125,0.5468803644180298,0.9038060307502747,-0.9509013891220093
1737750413142267600,3.273267578125,0.5810205340385437,0.7361009120941162,-0.929628849029541
1737750413152335600,3.283335693359375,0.5892004370689392,0.6407483220100403,-0.8235516548156738
1737750413162403600,3.293403564453125,0.5371366739273071,0.6219626069068909,-0.767785370349884
1737750413172471800,3.303471923828125,0.5439897775650024,0.41837194561958313,-0.8236334323883057
1737750413182539800,3.313539794921875,0.6229554414749146,0.20958225429058075,-0.8981941938400269
1737750413192607700,3.323607666015625,0.7237885594367981,-0.02588193118572235,-0.9435470700263977
1737750413202675500,3.333675537109375,0.8431307077407837,-0.29803168773651123,-0.9753609299659729
1737750413212743700,3.34374365234375,0.949654221534729,-0.5355457067489624,-0.9734447598457336
1737750413222810600,3.353810546875,0.9776176810264587,-0.6157638430595398,-0.9176496863365173
1737750413232878600,3.363878662109375,0.89145827293396,-0.4519099295139313,-0.8606979846954346
1737750413242946600,3.373946533203125,0.7339123487472534,-0.20556648075580597,-0.8271426558494568
1737750413253014500,3.3840146484375,0.6102042198181152,-0.1140458807349205,-0.767348051071167
1737750413263082800,3.394082763671875,0.6251938343048096,-0.13269466161727905,-0.670132040977478
1737750413273150700,3.404150634765625,0.8150279521942139,-0.27931100130081177,-0.5861172676086426
1737750413283218700,3.41421875,1.1246258020401,-0.471540629863739,-0.5518099069595337
1737750413293287000,3.424286865234375,1.541955590248108,-0.9113278388977051,-0.5430701971054077
1737750413303354600,3.434354736328125,1.8189371824264526,-1.026771903038025,-0.547596275806427
1737750413313422600,3.444422607421875,1.7849293947219849,-0.9778285622596741,-0.5895532965660095
1737750413323489800,3.45448974609375,1.5088528394699097,-0.9098902940750122,-0.5657161474227905
1737750413333557500,3.4645576171875,1.1334378719329834,-0.862008273601532,-0.5186599493026733
1737750413343625700,3.474625732421875,0.7884573340415955,-0.7391984462738037,-0.4700404703617096
1737750413353693700,3.484693603515625,0.5757221579551697,-0.637405514717102,-0.4284411072731018
1737750413363761700,3.49476171875,0.5230168700218201,-0.5761285424232483,-0.3756069242954254
1737750413373829600,3.50482958984375,0.5716770887374878,-0.5519334673881531,-0.30097848176956177
1737750413383897900,3.51489794921875,0.6869634389877319,-0.4574242830276489,-0.22474415600299835
1737750413393966000,3.524966064453125,0.8702936172485352,-0.4455505609512329,-0.14269882440567017
1737750413404034000,3.535033935546875,1.1355534791946411,-0.5174189209938049,-0.06530363857746124
1737750413414102000,3.54510205078125,1.4604671001434326,-0.6641172766685486,0.0024924525059759617
1737750413424169000,3.5551689453125,1.7477426528930664,-0.8220341801643372,0.03902942314743996
1737750413434237000,3.56523681640625,1.9112327098846436,-1.0482609272003174,0.03558702394366264
1737750413444305200,3.57530517578125,1.8869646787643433,-1.2579944133758545,0.021694377064704895
1737750413454373000,3.585373046875,1.696907639503479,-1.417915940284729,0.026796460151672363
1737750413464441000,3.595441162109375,1.4175931215286255,-1.3641270399093628,0.0691194161772728
1737750413474509000,3.605509033203125,1.1375141143798828,-1.2170547246932983,0.1498158574104309
1737750413484577300,3.615577392578125,0.9186968207359314,-0.9377560019493103,0.26278769969940186
1737750413494645000,3.62564501953125,0.826819121837616,-0.3820943832397461,0.37894466519355774
1737750413504713000,3.635712890625,0.9104415774345398,-0.2676732540130615,0.5318042635917664
1737750413514780200,3.6457802734375,1.0890898704528809,-0.1323295384645462,0.6443816423416138
1737750413524847900,3.655847900390625,1.2552857398986816,0.17758303880691528,0.6581369042396545
1737750413534916000,3.665916015625,1.3814420700073242,0.4224913418292999,0.661686360836029
1737750413544984000,3.675984130859375,1.512971043586731,0.39877161383628845,0.668044924736023
1737750413555052000,3.686052001953125,1.6405056715011597,0.345120370388031,0.7158132195472717
1737750413565120000,3.6961201171875,1.8442147970199585,-0.13072365522384644,0.7365033030509949
1737750413575188200,3.706188232421875,1.9441715478897095,-0.5460262894630432,0.7269676327705383
1737750413585256200,3.716256103515625,1.7736817598342896,-1.1154751777648926,0.6107230186462402
1737750413595324200,3.72632421875,1.3505805730819702,-1.9194104671478271,0.35031938552856445
1737750413605391000,3.73639111328125,0.6123648881912231,-2.545682907104492,0.041909366846084595
1737750413615459300,3.746459228515625,-0.21037214994430542,-2.8513131141662598,-0.17237922549247742
1737750413625527000,3.756527099609375,-0.7558242678642273,-2.940502643585205,-0.26746153831481934
1737750413635595000,3.766594970703125,-0.9549936056137085,-2.723661422729492,-0.21558848023414612
1737750413645663000,3.7766630859375,-0.9438794255256653,-2.2930479049682617,-0.049859434366226196
1737750413655731200,3.786731201171875,-0.8594569563865662,-1.7871533632278442,0.14835165441036224
1737750413665799200,3.796799072265625,-0.8670413494110107,-1.2837722301483154,0.3065652549266815
1737750413675867100,3.8068671875,-1.0076138973236084,-0.9366715550422668,0.3907397985458374
1737750413685935000,3.81693505859375,-1.1685905456542969,-0.6769188046455383,0.4002009332180023
1737750413696002000,3.827001953125,-1.2711994647979736,-0.35413864254951477,0.37786605954170227
1737750413706070300,3.8370703125,-1.3165669441223145,0.11774127930402756,0.44658946990966797
1737750413716138200,3.84713818359375,-1.328256368637085,0.5968484878540039,0.5839300155639648
1737750413726206000,3.8572060546875,-1.3456225395202637,1.0708948373794556,0.7345714569091797
1737750413736274000,3.86727392578125,-1.430826187133789,1.5368084907531738,0.8750742673873901
1737750413746342100,3.877342041015625,-1.57438063621521,1.9847460985183716,0.9852638840675354
1737750413756410000,3.88741015625,-1.751670241355896,2.3700203895568848,1.0626952648162842
1737750413766478000,3.89747802734375,-1.9397910833358765,2.5744681358337402,1.1282545328140259
1737750413776546000,3.907546142578125,-2.1299030780792236,2.6821486949920654,1.1921539306640625
1737750413786614300,3.9176142578125,-2.2947821617126465,2.7604405879974365,1.2620760202407837
1737750413796681200,3.92768115234375,-2.353699207305908,2.767841339111328,1.3117644786834717
1737750413806749200,3.937749267578125,-2.370326280593872,2.633178949356079,1.2906932830810547
1737750413816817200,3.947817138671875,-2.4252240657806396,2.3702027797698975,1.2317924499511719
1737750413826884900,3.957884765625,-2.528224229812622,1.9964940547943115,1.1479496955871582
1737750413836953000,3.967953125,-2.576533794403076,1.6092324256896973,1.0824681520462036
1737750413847021000,3.97802099609375,-2.5160903930664062,1.1542243957519531,1.0099655389785767
1737750413857089000,3.988089111328125,-2.300110101699829,0.6475849151611328,0.9265238642692566
1737750413867157000,3.998156982421875,-1.8233134746551514,0.10581271350383759,0.8206533789634705
1737750413877225200,4.00822509765625,-1.1933523416519165,-0.2848631739616394,0.6544204354286194
1737750413887293200,4.018293212890625,-0.5117980241775513,-0.5843896865844727,0.4412098824977875
1737750413897360100,4.028360107421875,0.032813072204589844,-0.8182341456413269,0.23107555508613586
1737750413907428000,4.038427978515625,0.30653196573257446,-0.9221158027648926,0.07519888132810593
1737750413917496300,4.048496337890625,0.35178467631340027,-0.8789225220680237,0.05337054654955864
1737750413927564000,4.05856396484375,0.251232773065567,-0.7058476805686951,0.11933624744415283
1737750413937632000,4.068632080078125,0.09448655694723129,-0.4190595746040344,0.22314652800559998
1737750413947700000,4.078699951171875,-0.03687173128128052,-0.06934604793787003,0.35240092873573303
1737750413957768200,4.088768310546875,-0.09080367535352707,0.2757357060909271,0.4713113307952881
1737750413967836200,4.098836181640625,-0.036365997046232224,0.572637140750885,0.5609467029571533
1737750413977904000,4.108904052734375,0.10951291024684906,0.8123748898506165,0.6019582748413086
1737750413987972000,4.11897216796875,0.2601620852947235,1.009736180305481,0.6003790497779846
1737750413998040300,4.129040283203125,0.3616223931312561,1.1676877737045288,0.5735490322113037
1737750414008107300,4.139107177734375,0.39574867486953735,1.272268533706665,0.5337986946105957
1737750414018175200,4.14917529296875,0.36877670884132385,1.3113352060317993,0.48158952593803406
1737750414028243000,4.159242919921875,0.3019998073577881,1.2927050590515137,0.4270349442958832
1737750414038311000,4.169310791015625,0.2120877504348755,1.2213269472122192,0.35881513357162476
1737750414048379100,4.179379150390625,0.12555871903896332,1.0991337299346924,0.2916662096977234
1737750414058447000,4.189447021484375,0.05751735344529152,0.9207311868667603,0.23174108564853668
1737750414068515000,4.19951513671875,0.02636582776904106,0.7159096002578735,0.1713712215423584
1737750414078583000,4.2095830078125,0.021213674917817116,0.4934786856174469,0.08766726404428482
1737750414088651300,4.2196513671875,0.03633616864681244,0.2731207609176636,0.0011081412667408586
1737750414098719200,4.22971923828125,0.047816257923841476,0.07430778443813324,-0.06453824788331985
1737750414108786200,4.2397861328125,0.038417961448431015,-0.0729232057929039,-0.10274049639701843
1737750414118854100,4.249854248046875,0.026136795058846474,-0.16866038739681244,-0.11459102481603622
1737750414128922000,4.259922119140625,0.019344935193657875,-0.22762170433998108,-0.1186709925532341
1737750414138990000,4.269989990234375,0.026451580226421356,-0.2564118206501007,-0.13480335474014282
1737750414149058000,4.28005810546875,0.03594415262341499,-0.24358469247817993,-0.14601659774780273
1737750414159126000,4.2901259765625,0.030546192079782486,-0.179340198636055,-0.1653279811143875
1737750414169194000,4.300194091796875,-0.002275404753163457,-0.08077127486467361,-0.20037570595741272
1737750414179262200,4.31026220703125,-0.056544769555330276,0.03742007538676262,-0.23021084070205688
1737750414189330200,4.320330078125,-0.12752386927604675,0.14265115559101105,-0.26985839009284973
1737750414199398100,4.330398193359375,-0.20090407133102417,0.23906931281089783,-0.2604331970214844
1737750414209465900,4.3404658203125,-0.28208547830581665,0.3225564658641815,-0.1517985761165619
1737750414219533300,4.350533203125,-0.38886919617652893,0.33177927136421204,-0.06246630847454071
1737750414229601000,4.36060107421875,-0.5122145414352417,0.2703947424888611,-0.09049127995967865
1737750414239669000,4.3706689453125,-0.6754133105278015,0.19948513805866241,-0.19175292551517487
1737750414249737000,4.380737060546875,-0.8764540553092957,0.15888099372386932,-0.29145580530166626
1737750414259805200,4.39080517578125,-1.032650351524353,0.140544593334198,-0.29772570729255676
1737750414269873200,4.400873046875,-1.0763927698135376,0.09568578004837036,-0.2154228389263153
1737750414279941000,4.410941162109375,-0.986492395401001,0.03170040622353554,-0.08618894964456558
1737750414290009000,4.421009033203125,-0.7898224592208862,0.007404652889817953,0.07723592966794968
1737750414300077300,4.431077392578125,-0.5392541885375977,0.044804755598306656,0.22360672056674957
1737750414310145000,4.44114501953125,-0.301558256149292,0.16079181432724,0.34374457597732544
1737750414320212200,4.451212158203125,-0.17784163355827332,0.35931581258773804,0.43584734201431274
1737750414330280200,4.4612802734375,-0.1991535872220993,0.598412036895752,0.49024081230163574
1737750414340348000,4.471347900390625,-0.3479478657245636,0.816895604133606,0.5044423937797546
1737750414350416100,4.481416015625,-0.5519100427627563,0.9921427965164185,0.5046383738517761
1737750414360484000,4.491484130859375,-0.7266384363174438,1.086175799369812,0.4945913553237915
1737750414370552000,4.501552001953125,-0.8215228915214539,1.0794633626937866,0.4824553430080414
1737750414380620000,4.5116201171875,-0.821151614189148,1.011816143989563,0.4828028678894043
1737750414390688300,4.521688232421875,-0.752185583114624,0.9230849146842957,0.4965144097805023
1737750414400756500,4.531756591796875,-0.6558129787445068,0.8289533853530884,0.519739031791687
1737750414410824400,4.541824462890625,-0.5719133019447327,0.7841904163360596,0.5575178265571594
1737750414420891600,4.5518916015625,-0.5254608392715454,0.7991794943809509,0.6036752462387085
1737750414430959400,4.56195947265625,-0.5151658654212952,0.8548163771629333,0.6190123558044434
1737750414441027300,4.57202734375,-0.5101934671401978,0.922463059425354,0.6042800545692444
1737750414451095300,4.58209521484375,-0.47681793570518494,0.9952957034111023,0.6129933595657349
1737750414461163500,4.59216357421875,-0.42430227994918823,1.0673043727874756,0.6405856013298035
1737750414471231500,4.6022314453125,-0.35544759035110474,1.128226399421692,0.6629194021224976
1737750414481299500,4.612299560546875,-0.28704509139060974,1.1829758882522583,0.6679437160491943
1737750414491367400,4.622367431640625,-0.22637295722961426,1.2603965997695923,0.7441514134407043
1737750414501435400,4.632435302734375,-0.19833838939666748,1.2705672979354858,0.7133727073669434
1737750414511503400,4.64250341796875,-0.18873529136180878,1.2293345928192139,0.7032734751701355
1737750414521571300,4.6525712890625,-0.18360471725463867,1.0937376022338867,0.7121327519416809
1737750414531638300,4.66263818359375,-0.16225415468215942,0.8708392977714539,0.6640602946281433
1737750414541706200,4.672706298828125,-0.11532685905694962,0.6243661046028137,0.6290282607078552
1737750414551774500,4.6827744140625,-0.06472387164831161,0.42852073907852173,0.6440836191177368
1737750414561842400,4.692842529296875,-0.034033868461847305,0.3471619486808777,0.7936244010925293
1737750414571910400,4.702910400390625,-0.030954454094171524,0.3844986855983734,1.0352412462234497
1737750414581978400,4.712978271484375,-0.05752161517739296,0.45779019594192505,1.2593047618865967
1737750414592046600,4.723046630859375,-0.09289292246103287,0.4092695415019989,1.3758074045181274
1737750414602114600,4.733114501953125,-0.15888072550296783,0.4436549246311188,1.4287720918655396
1737750414612182300,4.743182373046875,-0.2681763172149658,0.6921329498291016,1.5682463645935059
1737750414622250200,4.753250244140625,-0.4776102304458618,1.32882821559906,2.036007881164551
1737750414632317400,4.7633173828125,-0.8054901361465454,2.6197474002838135,2.529216766357422
1737750414642385400,4.773385498046875,-1.0841827392578125,4.34666109085083,2.1323189735412598
1737750414652453400,4.783453369140625,-1.0461437702178955,5.255519866943359,2.0041251182556152
1737750414662521300,4.793521240234375,-0.60984867811203,4.961847305297852,2.2343287467956543
1737750414672589600,4.803589599609375,-0.05519188195466995,4.227316379547119,2.088829517364502
1737750414682657500,4.813657470703125,0.3505193889141083,3.6547303199768066,1.707362174987793
1737750414692725500,4.8237255859375,0.5497763156890869,3.3590939044952393,1.4411579370498657
1737750414702793500,4.83379345703125,0.5850317478179932,3.2274906635284424,1.359263300895691
1737750414712861400,4.843861328125,0.47394227981567383,3.1621932983398438,1.3178462982177734
1737750414722929400,4.853929443359375,0.2574898600578308,3.0598742961883545,1.3806612491607666
1737750414732996400,4.863996337890625,-0.0137253999710083,3.006126642227173,1.4789122343063354
1737750414743064300,4.874064208984375,-0.36641260981559753,3.103355646133423,1.5073171854019165
1737750414753132300,4.88413232421875,-0.7739774584770203,3.440431594848633,1.482840895652771
1737750414763200500,4.894200439453125,-1.1702438592910767,3.880880117416382,1.4832345247268677
1737750414773268500,4.9042685546875,-1.5212903022766113,4.116963863372803,1.493301272392273
1737750414783336400,4.91433642578125,-1.7653130292892456,3.8863441944122314,1.4995431900024414
1737750414793404400,4.924404296875,-1.8998762369155884,3.2396128177642822,1.500327229499817
1737750414803472600,4.93447265625,-1.8995054960250854,2.3043923377990723,1.4589240550994873
1737750414813540400,4.944540283203125,-1.7608224153518677,1.280968189239502,1.418501377105713
1737750414823608300,4.9546083984375,-1.5032950639724731,0.3546217381954193,1.3800101280212402
1737750414833676300,4.96467626953125,-1.1554521322250366,-0.3642549216747284,1.2833187580108643
1737750414843743200,4.9747431640625,-0.7451298236846924,-0.8763408660888672,1.1366981267929077
1737750414853811500,4.9848115234375,-0.37806233763694763,-1.1760058403015137,0.9312909245491028
1737750414863879400,4.99487939453125,-0.2836351692676544,-1.2900831699371338,0.5869985222816467
1737750414873947400,5.004947509765625,-0.44405868649482727,-1.2711774110794067,0.3655819594860077
1737750414884015400,5.015015380859375,-0.6746753454208374,-1.084538221359253,0.35879677534103394
1737750414894083600,5.02508349609375,-0.8404126763343811,-0.6835479736328125,0.42751219868659973
1737750414904151600,5.035151611328125,-0.8502994179725647,-0.08969579637050629,0.4595617353916168
1737750414914219300,5.04521923828125,-0.7187368273735046,0.5570885539054871,0.4316278398036957
1737750414924287200,5.055287353515625,-0.5206128358840942,1.1674813032150269,0.35737118124961853
1737750414934355500,5.06535546875,-0.33167222142219543,1.6524219512939453,0.2640364468097687
1737750414944422400,5.07542236328125,-0.20369534194469452,1.938405990600586,0.1985517144203186
1737750414954490400,5.085490478515625,-0.13504943251609802,2.0392158031463623,0.1666150838136673
1737750414964558300,5.095558349609375,-0.13921275734901428,2.0222926139831543,0.13800287246704102
1737750414974626600,5.10562646484375,-0.21161317825317383,1.9725840091705322,0.07318472862243652
1737750414984694500,5.115694580078125,-0.34244948625564575,1.9485598802566528,-0.05500998720526695
1737750414994762500,5.125762451171875,-0.4986388385295868,1.8981465101242065,-0.2264094352722168
1737750415004830500,5.13583056640625,-0.6543788909912109,1.7248601913452148,-0.39719876646995544
1737750415014898400,5.1458984375,-0.7729918360710144,1.368679404258728,-0.5381236672401428
1737750415024966400,5.15596630859375,-0.827792763710022,0.8802567720413208,-0.6263536214828491
1737750415035034400,5.166034423828125,-0.805906355381012,0.3784429132938385,-0.648614764213562
1737750415045101300,5.176101318359375,-0.7268855571746826,-0.05979595705866814,-0.651611864566803
1737750415055169300,5.186169189453125,-0.6024592518806458,-0.4031975269317627,-0.6642131209373474
1737750415065237500,5.196237548828125,-0.47575294971466064,-0.6453017592430115,-0.7072436809539795
1737750415075305500,5.206305419921875,-0.395517498254776,-0.7912589907646179,-0.7867600917816162
1737750415085373400,5.21637353515625,-0.3813531994819641,-0.8337854146957397,-0.8725583553314209
1737750415095441400,5.22644140625,-0.42010965943336487,-0.7793620824813843,-0.92119300365448
1737750415105509600,5.236509521484375,-0.46664413809776306,-0.6246830224990845,-0.9342179894447327
1737750415115577300,5.246577392578125,-0.48265135288238525,-0.39523041248321533,-0.9014022350311279
1737750415125645300,5.256645263671875,-0.45074400305747986,-0.10407952964305878,-0.8412771224975586
1737750415135713300,5.26671337890625,-0.36702513694763184,0.21036815643310547,-0.7672827839851379
1737750415145781500,5.276781494140625,-0.25344210863113403,0.5130113959312439,-0.7066437005996704
1737750415155848400,5.286848388671875,-0.14157311618328094,0.761674165725708,-0.6784248352050781
1737750415165916400,5.29691650390625,-0.06989093124866486,0.9536497592926025,-0.6797199249267578
1737750415175984400,5.306984375,-0.047109454870224,1.0736064910888672,-0.6826257109642029
1737750415186052400,5.31705224609375,-0.06963314116001129,1.1024019718170166,-0.7006869912147522
1737750415196120600,5.32712060546875,-0.11515801399946213,1.0402381420135498,-0.7343341708183289
1737750415206188500,5.3371884765625,-0.15990684926509857,0.9163252711296082,-0.7682719230651855
1737750415216256300,5.34725634765625,-0.19700467586517334,0.7608667016029358,-0.7931985855102539
1737750415226324200,5.35732421875,-0.215597003698349,0.5926833152770996,-0.8103623390197754
1737750415236392400,5.367392333984375,-0.20402264595031738,0.4163370430469513,-0.7786028385162354
1737750415246460400,5.37746044921875,-0.14860332012176514,0.2438981533050537,-0.7331778407096863
1737750415256527400,5.38752734375,-0.05712613835930824,0.10947109758853912,-0.7169770002365112
1737750415266595300,5.39759521484375,0.026191657409071922,0.05742600932717323,-0.7364359498023987
1737750415276663600,5.40766357421875,0.05314897000789642,0.08567948639392853,-0.7875564098358154
1737750415286731500,5.4177314453125,0.015970710664987564,0.16031856834888458,-0.8279927372932434
1737750415296799500,5.427799560546875,-0.036251213401556015,0.23336055874824524,-0.8244062662124634
1737750415306867500,5.437867431640625,-0.035951077938079834,0.26245665550231934,-0.7718751430511475
1737750415316935400,5.447935302734375,0.052863482385873795,0.2505158483982086,-0.6955942511558533
1737750415327003400,5.45800341796875,0.20439361035823822,0.2457173615694046,-0.6247666478157043
1737750415337071400,5.4680712890625,0.37124598026275635,0.2954670786857605,-0.5926111340522766
1737750415347139300,5.478139404296875,0.4736858010292053,0.43253037333488464,-0.5814045667648315
1737750415357206300,5.488206298828125,0.48138049244880676,0.6205205321311951,-0.5797741413116455
1737750415367274500,5.4982744140625,0.40506866574287415,0.8057111501693726,-0.5639720559120178
1737750415377342500,5.508342529296875,0.29726389050483704,0.9179873466491699,-0.5346330404281616
1737750415387410400,5.518410400390625,0.1973775178194046,0.927839457988739,-0.4936768114566803
1737750415397484000,5.528484130859375,0.118735171854496,0.8492687344551086,-0.4533906579017639
1737750415407552300,5.53855224609375,0.06900862604379654,0.7345975637435913,-0.43742260336875916
1737750415417620200,5.5486201171875,0.030166158452630043,0.617610514163971,-0.44873571395874023
1737750415427688200,5.558688232421875,0.0024319987278431654,0.5201811194419861,-0.48040497303009033
1737750415437756400,5.56875634765625,-0.014912370592355728,0.43923142552375793,-0.5338506102561951
1737750415447824100,5.57882421875,-0.0009496832499280572,0.3602322041988373,-0.5811198353767395
1737750415457892000,5.58889208984375,0.043770648539066315,0.2808508276939392,-0.6051239967346191
1737750415467959000,5.598958984375,0.10809984058141708,0.20279492437839508,-0.5918270945549011
1737750415478027000,5.609027099609375,0.1773657351732254,0.14386209845542908,-0.5616137981414795
1737750415488095200,5.61909521484375,0.24458791315555573,0.1166192889213562,-0.523101806640625
1737750415498163200,5.6291630859375,0.29498291015625,0.13856719434261322,-0.48784875869750977
1737750415508231200,5.639231201171875,0.3097970187664032,0.21335728466510773,-0.4604925215244293
1737750415518299100,5.649299072265625,0.29785487055778503,0.3423083424568176,-0.44603100419044495
1737750415528367400,5.659367431640625,0.26769721508026123,0.4922727942466736,-0.4428706467151642
1737750415538435300,5.669435302734375,0.24916188418865204,0.6419051885604858,-0.4398796260356903
1737750415548503000,5.6795029296875,0.25190600752830505,0.7661235332489014,-0.43803754448890686
1737750415558571000,5.689571044921875,0.27737969160079956,0.8531415462493896,-0.42816439270973206
1737750415568639200,5.69963916015625,0.3154357075691223,0.8984227180480957,-0.40380898118019104
1737750415578706200,5.7097060546875,0.36596494913101196,0.9160727858543396,-0.36952611804008484
1737750415588774100,5.719774169921875,0.41741615533828735,0.903859555721283,-0.33347225189208984
1737750415598842000,5.729842041015625,0.46807506680488586,0.863586962223053,-0.28450363874435425
1737750415608910000,5.73991015625,0.5063779950141907,0.8165606260299683,-0.23925279080867767
1737750415618978300,5.749978271484375,0.5269200205802917,0.7642742395401001,-0.1962917447090149
1737750415629046300,5.76004638671875,0.5396517515182495,0.7163777947425842,-0.16022029519081116
1737750415639114200,5.7701142578125,0.5396221876144409,0.6743451356887817,-0.12868528068065643
1737750415649182200,5.78018212890625,0.5377793312072754,0.651833713054657,-0.10195539146661758
1737750415659250200,5.790250244140625,0.5441120266914368,0.6512795090675354,-0.07425505667924881
1737750415669318100,5.800318115234375,0.5635073184967041,0.6637140512466431,-0.05367601290345192
1737750415679386000,5.81038623046875,0.5934937000274658,0.6745209097862244,-0.033669013530015945
1737750415689453000,5.820453125,0.6211887001991272,0.6941395998001099,-0.021413147449493408
1737750415699521000,5.83052099609375,0.6319106221199036,0.7196438908576965,-0.0020764668006449938
1737750415709589200,5.84058935546875,0.6183117032051086,0.7389174699783325,0.017463145777583122
1737750415719657200,5.8506572265625,0.5803022384643555,0.7395358681678772,0.028198614716529846
1737750415729725200,5.86072509765625,0.5418081283569336,0.7238200306892395,0.0389532595872879
1737750415739793400,5.87079345703125,0.5279855132102966,0.692101776599884,0.05052921921014786
1737750415749861000,5.880861083984375,0.5467131733894348,0.6596548557281494,0.05844306945800781
1737750415759929000,5.89092919921875,0.5942066311836243,0.6384649276733398,0.06790421903133392
1737750415769997000,5.9009970703125,0.6583701968193054,0.6453105807304382,0.07455519586801529
1737750415780065300,5.911065185546875,0.7223877906799316,0.6828494071960449,0.0775081068277359
1737750415790133200,5.92113330078125,0.7766004204750061,0.753974199295044,0.08894771337509155
1737750415800200200,5.9312001953125,0.8232778906822205,0.8277943730354309,0.09862697124481201
1737750415810268200,5.94126806640625,0.8578374981880188,0.8873234391212463,0.12048673629760742
1737750415820336000,5.951336181640625,0.8688443303108215,0.9310187101364136,0.15870122611522675
1737750415830404400,5.961404296875,0.860367476940155,0.9645852446556091,0.20157040655612946
1737750415840472300,5.971472412109375,0.8434449434280396,0.9844156503677368,0.2545207142829895
1737750415850540300,5.981540283203125,0.8285940885543823,0.9839493036270142,0.314073771238327
1737750415860608000,5.99160791015625,0.8233737945556641,0.9580013751983643,0.3719607889652252
1737750415870676200,6.00167626953125,0.8313411474227905,0.9126061797142029,0.42474064230918884
1737750415880744200,6.011744140625,0.8515446782112122,0.8543780446052551,0.4736197590827942
1737750415890812200,6.021812255859375,0.8821254968643188,0.7955415844917297,0.5161573886871338
1737750415900880100,6.031880126953125,0.9146900773048401,0.742009162902832,0.5460026264190674
1737750415910947000,6.041947021484375,0.9390838742256165,0.6927960515022278,0.5718275308609009
1737750415921015300,6.052015380859375,0.9503173232078552,0.6386182904243469,0.5771453380584717
1737750415931083300,6.062083251953125,0.9283321499824524,0.6065825819969177,0.5420283675193787
1737750415941151200,6.072151123046875,0.8514221906661987,0.6425216794013977,0.46125710010528564
1737750415951219200,6.08221923828125,0.7056644558906555,0.7357014417648315,0.3558313548564911
1737750415961287200,6.092287109375,0.5368046164512634,0.821149468421936,0.27163684368133545
1737750415971355100,6.102355224609375,0.41856956481933594,0.8331978917121887,0.2365528792142868
1737750415981423000,6.112423095703125,0.38699617981910706,0.7795088291168213,0.25367382168769836
1737750415991491000,6.122490966796875,0.45775529742240906,0.6900703310966492,0.2851150929927826
1737750416001559300,6.132559326171875,0.5759775638580322,0.6246985197067261,0.30832400918006897
1737750416011627300,6.142627197265625,0.6535801887512207,0.6124734878540039,0.31072965264320374
1737750416021695200,6.1526953125,0.6434125304222107,0.6424111723899841,0.27449148893356323
1737750416031762200,6.16276220703125,0.5429719090461731,0.6887608170509338,0.21001501381397247
1737750416041830400,6.172830322265625,0.37118420004844666,0.7217478156089783,0.13170157372951508
1737750416051898400,6.1828984375,0.19309648871421814,0.7046353816986084,0.06204073503613472
1737750416061966000,6.192966064453125,0.053413957357406616,0.6384220123291016,0.012711267918348312
1737750416072034000,6.203033935546875,-0.0279698483645916,0.5624383091926575,-0.03433879837393761
1737750416082102300,6.213102294921875,-0.06532973796129227,0.5042988657951355,-0.08882281184196472
1737750416092170200,6.223170166015625,-0.07871744781732559,0.48122096061706543,-0.13799355924129486
1737750416102238200,6.23323828125,-0.0809401199221611,0.489589661359787,-0.1637258231639862
1737750416112306200,6.24330615234375,-0.059606604278087616,0.5227808952331543,-0.15958966314792633
1737750416122374400,6.25337451171875,0.0062578958459198475,0.5506612658500671,-0.1318720132112503
1737750416132442000,6.263442138671875,0.11758308857679367,0.5629413723945618,-0.09441571682691574
1737750416142509300,6.27350927734375,0.2528029680252075,0.5590603351593018,-0.06322877109050751
1737750416152577300,6.283577392578125,0.3790735602378845,0.54372239112854,-0.05062136426568031
1737750416162645000,6.29364501953125,0.456670343875885,0.5189827084541321,-0.05096997320652008
1737750416172713200,6.303713134765625,0.4553326368331909,0.47489967942237854,-0.054546598345041275
1737750416182781200,6.31378125,0.3915965259075165,0.41308239102363586,-0.0662916749715805
1737750416192849200,6.32384912109375,0.2847755551338196,0.33478251099586487,-0.06807465851306915
1737750416202917000,6.333917236328125,0.1595209538936615,0.23471637070178986,-0.05541425570845604
1737750416212985300,6.3439853515625,0.04694540426135063,0.12105691432952881,-0.04459995776414871
1737750416223053300,6.35405322265625,-0.04135569557547569,0.013824203051626682,-0.033000558614730835
1737750416233121300,6.364121337890625,-0.08889845013618469,-0.07975288480520248,-0.01775130070745945
1737750416243189000,6.37418896484375,-0.08949313312768936,-0.15765167772769928,-0.010614294558763504
1737750416253257200,6.38425732421875,-0.05247199535369873,-0.22967474162578583,-0.010604707524180412
1737750416263325200,6.3943251953125,0.0062818643637001514,-0.29508358240127563,-0.03122210130095482
1737750416273392000,6.40439208984375,0.06949625164270401,-0.34871670603752136,-0.06393157690763474
1737750416283460000,6.414460205078125,0.11080614477396011,-0.36944514513015747,-0.09956174343824387
1737750416293528000,6.424528076171875,0.11325891315937042,-0.3587648272514343,-0.1398194134235382
1737750416303596300,6.43459619140625,0.08713410049676895,-0.3136732280254364,-0.17541763186454773
1737750416313664300,6.444664306640625,0.047445811331272125,-0.25098347663879395,-0.19301685690879822
1737750416323732200,6.454732177734375,0.013363209553062916,-0.17952048778533936,-0.18873263895511627
1737750416333800200,6.46480029296875,-0.0019345202017575502,-0.08638442307710648,-0.17246417701244354
1737750416343868200,6.4748681640625,0.010735202580690384,0.025163942947983742,-0.156233012676239
1737750416353936100,6.48493603515625,0.0443916991353035,0.14305248856544495,-0.15119564533233643
1737750416364004000,6.495004150390625,0.09550894796848297,0.25039252638816833,-0.15521249175071716
1737750416374072000,6.505072021484375,0.1453758329153061,0.32960987091064453,-0.17412599921226501
1737750416384139300,6.51513916015625,0.1788315325975418,0.3706073462963104,-0.1850028783082962
1737750416394200600,6.52520068359375,0.19352419674396515,0.3757334053516388,-0.19189247488975525
1737750416404268500,6.5352685546875,0.18209870159626007,0.3500688076019287,-0.19115132093429565
1737750416414336800,6.545336669921875,0.16462808847427368,0.3118135631084442,-0.20314113795757294
1737750416424404700,6.55540478515625,0.15308648347854614,0.2690194845199585,-0.21250639855861664
1737750416434472400,6.565472412109375,0.1638999879360199,0.23441116511821747,-0.22038669884204865
1737750416444540400,6.57554052734375,0.18832063674926758,0.20578831434249878,-0.22484296560287476
1737750416454608600,6.585608642578125,0.21196845173835754,0.18282733857631683,-0.232481449842453
1737750416464676600,6.595676513671875,0.22409674525260925,0.17028012871742249,-0.24308988451957703
1737750416474744600,6.60574462890625,0.21839092671871185,0.16100779175758362,-0.255382239818573
1737750416484812500,6.6158125,0.1800568550825119,0.1517285406589508,-0.2709076702594757
1737750416494880800,6.625880859375,0.11700065433979034,0.13830648362636566,-0.285160094499588
1737750416504947700,6.63594775390625,0.05160913243889809,0.13205736875534058,-0.2837832570075989
1737750416515015700,6.646015625,-0.001924932817928493,0.12507322430610657,-0.2670500874519348
1737750416525083600,6.656083740234375,-0.023455791175365448,0.12142176926136017,-0.24137000739574432
1737750416535151400,6.6661513671875,-0.011126420460641384,0.1282261461019516,-0.21941091120243073
1737750416545219600,6.676219482421875,0.028896363452076912,0.1575065404176712,-0.2196817547082901
1737750416555287600,6.68628759765625,0.06619659811258316,0.21414238214492798,-0.25560835003852844
1737750416565355500,6.69635546875,0.07823488116264343,0.2898462116718292,-0.3140042722225189
1737750416575423700,6.706423828125,0.07736083120107651,0.36634019017219543,-0.3886931538581848
1737750416585491700,6.71649169921875,0.06179971620440483,0.43638744950294495,-0.4572197496891022
1737750416595559700,6.7265595703125,0.029806630685925484,0.4954667389392853,-0.5138769149780273
1737750416605627600,6.736627685546875,-0.013372796587646008,0.5337648391723633,-0.5491331815719604
1737750416615695600,6.746695556640625,-0.043779172003269196,0.5681737065315247,-0.5579029321670532
1737750416625763600,6.756763671875,-0.0429685041308403,0.5806804299354553,-0.5448992848396301
1737750416635830500,6.76683056640625,0.018927885219454765,0.5672671794891357,-0.5043143033981323
1737750416645898500,6.7768984375,0.15433630347251892,0.5141679644584656,-0.434896856546402
1737750416655966500,6.786966552734375,0.35921141505241394,0.4277401566505432,-0.343628466129303
1737750416666034700,6.79703466796875,0.5991536974906921,0.3116369843482971,-0.244476318359375
1737750416676102700,6.8071025390625,0.8149960041046143,0.18437756597995758,-0.14864380657672882
1737750416686170600,6.817170654296875,0.9501199722290039,0.06590045243501663,-0.08706112951040268
1737750416696238600,6.827238525390625,0.9752615690231323,-0.03989042341709137,-0.07358793169260025
1737750416706306800,6.837306884765625,0.9089376926422119,-0.14031024277210236,-0.12560053169727325
1737750416716374500,6.84737451171875,0.7428743839263916,-0.21994008123874664,-0.20695450901985168
1737750416726442500,6.8574423828125,0.5234959721565247,-0.3120180666446686,-0.2757229208946228
1737750416736510500,6.867510498046875,0.33247488737106323,-0.3952067196369171,-0.321916788816452
1737750416746578700,6.87757861328125,0.24767930805683136,-0.46559351682662964,-0.3466777801513672
1737750416756646700,6.887646728515625,0.27211248874664307,-0.5052000284194946,-0.34627804160118103
1737750416766713600,6.897713623046875,0.37542101740837097,-0.5034229159355164,-0.3278478980064392
1737750416776781600,6.907781494140625,0.5079625248908997,-0.45837607979774475,-0.30219393968582153
1737750416786849500,6.917849609375,0.6331175565719604,-0.3776964247226715,-0.2828753888607025
1737750416796917800,6.927917724609375,0.7297087907791138,-0.26376453042030334,-0.26247796416282654
1737750416806985700,6.93798583984375,0.7986100912094116,-0.13658180832862854,-0.2346615046262741
1737750416817053400,6.948053466796875,0.844454824924469,-0.013118199072778225,-0.2030836045742035
1737750416827121400,6.958121337890625,0.8884065747261047,0.09573478251695633,-0.1649916172027588
1737750416837189600,6.968189697265625,0.9521700739860535,0.21495625376701355,-0.12373419106006622
1737750416847257600,6.978257568359375,1.0286002159118652,0.3501838445663452,-0.0904231071472168
1737750416857325600,6.98832568359375,1.1265515089035034,0.4984484016895294,-0.041552238166332245
1737750416867393500,6.9983935546875,1.2452131509780884,0.6298101544380188,0.028778119012713432
1737750416877461800,7.008461669921875,1.3685013055801392,0.7051587104797363,0.10893793404102325
1737750416887529700,7.01852978515625,1.4689924716949463,0.7219584584236145,0.19648084044456482
1737750416897596700,7.0285966796875,1.5361043214797974,0.6838369369506836,0.2597266435623169
1737750416907664600,7.03866455078125,1.5548322200775146,0.602740466594696,0.2703864872455597
1737750416917732600,7.048732666015625,1.527591347694397,0.47766777873039246,0.23151737451553345
1737750416927800600,7.058800537109375,1.4402207136154175,0.3227149248123169,0.14922650158405304
1737750416937868500,7.06886865234375,1.3038852214813232,0.14964622259140015,0.03802434727549553
1737750416947936500,7.0789365234375,1.1407216787338257,-0.1151934340596199,-0.0531950443983078
1737750416958004700,7.089004638671875,1.0001871585845947,-0.4522276520729065,-0.12416136264801025
1737750416968072700,7.09907275390625,0.9173964262008667,-0.8012388944625854,-0.1718577742576599
1737750416978140700,7.109140625,0.89018315076828,-1.1210070848464966,-0.20571693778038025
1737750416988208600,7.119208740234375,0.8880015015602112,-1.3731889724731445,-0.23907595872879028
1737750416998276600,7.129276611328125,0.8526930212974548,-1.5507546663284302,-0.2959325909614563
1737750417008344600,7.139344482421875,0.7542045712471008,-1.668299913406372,-0.3738612234592438
1737750417018412500,7.14941259765625,0.6065399646759033,-1.691470742225647,-0.44955116510391235
1737750417028479500,7.1594794921875,0.4430205821990967,-1.649321436882019,-0.5021787285804749
1737750417038547500,7.16954736328125,0.3086276054382324,-1.5736725330352783,-0.5092595219612122
1737750417048615700,7.17961572265625,0.24672642350196838,-1.4783531427383423,-0.465000718832016
1737750417058683600,7.18968359375,0.2760736644268036,-1.3441565036773682,-0.3896838426589966
1737750417068751600,7.199751708984375,0.3830845355987549,-1.1515800952911377,-0.31706637144088745
1737750417078819600,7.209819580078125,0.5063475966453552,-0.9123364090919495,-0.25625893473625183
1737750417088887800,7.2198876953125,0.5881274342536926,-0.6402153968811035,-0.2019059658050537
1737750417098955500,7.22995556640625,0.6018126010894775,-0.4005277156829834,-0.13471414148807526
1737750417109023500,7.2400234375,0.5507675409317017,-0.24804681539535522,-0.05011589825153351
1737750417119091500,7.250091552734375,0.4524891674518585,-0.20214617252349854,0.03341228514909744
1737750417129159700,7.26015966796875,0.33299073576927185,-0.2468249648809433,0.08030229806900024
1737750417139227600,7.2702275390625,0.23254722356796265,-0.3304103910923004,0.10671286284923553
1737750417149295600,7.280295654296875,0.17555131018161774,-0.4304925203323364,0.1264151930809021
1737750417159362600,7.290362548828125,0.1751164197921753,-0.5353257060050964,0.1305534839630127
1737750417169430500,7.300430419921875,0.23058420419692993,-0.6198198199272156,0.15556375682353973
1737750417179498800,7.310498779296875,0.30376574397087097,-0.6792911887168884,0.1809367537498474
1737750417189566700,7.320566650390625,0.3662048876285553,-0.7359925508499146,0.2070131003856659
1737750417199634400,7.330634521484375,0.4081107974052429,-0.7820636034011841,0.2647477686405182
1737750417209702400,7.340702392578125,0.42208439111709595,-0.7755751013755798,0.35601162910461426
1737750417219770600,7.3507705078125,0.4137119650840759,-0.6798149943351746,0.4634097218513489
1737750417229838600,7.360838623046875,0.36450710892677307,-0.5099500417709351,0.5787717700004578
1737750417239906600,7.370906494140625,0.29650890827178955,-0.2532788813114166,0.6772860884666443
1737750417249974500,7.380974609375,0.23620668053627014,0.0396595299243927,0.7391600608825684
1737750417260042800,7.391042724609375,0.21451495587825775,0.3469662070274353,0.7814564108848572
1737750417270110700,7.40111083984375,0.26907381415367126,0.6463404297828674,0.8222869038581848
1737750417280178400,7.411178466796875,0.4087675213813782,0.9193088412284851,0.8824692964553833
1737750417290246400,7.421246337890625,0.5934692025184631,1.1870536804199219,0.9845597147941589
1737750417300313600,7.431313720703125,0.7820153832435608,1.4473260641098022,1.134454369544983
1737750417310381600,7.441381591796875,0.9384156465530396,1.7458230257034302,1.2831919193267822
1737750417320449500,7.451449462890625,1.0127679109573364,1.9995052814483643,1.3649842739105225
1737750417330517500,7.461517578125,0.9875083565711975,2.1957855224609375,1.3646596670150757
1737750417340585700,7.471585693359375,0.8467555046081543,2.270958185195923,1.2837389707565308
1737750417350653700,7.48165380859375,0.6161659955978394,2.1566436290740967,1.174049735069275
1737750417360721700,7.4917216796875,0.4133487045764923,1.9060789346694946,1.0793639421463013
1737750417370789600,7.50178955078125,0.3190101981163025,1.6389466524124146,0.9835599660873413
1737750417380857600,7.511857666015625,0.31678274273872375,1.3915152549743652,0.8724214434623718
1737750417390925600,7.521925537109375,0.3544353246688843,1.1688331365585327,0.7236868739128113
1737750417400997400,7.531997314453125,0.3915818929672241,0.9594407677650452,0.5499030947685242
1737750417411065300,7.5420654296875,0.40649744868278503,0.7399550676345825,0.38808515667915344
1737750417421133300,7.55213330078125,0.41429996490478516,0.5129368305206299,0.2789011299610138
1737750417431200300,7.5622001953125,0.4182659685611725,0.315978467464447,0.2206554114818573
1737750417441268200,7.572268310546875,0.4173676669597626,0.19239021837711334,0.2027970552444458
1737750417451336400,7.58233642578125,0.38412344455718994,0.1519698202610016,0.18972066044807434
1737750417461404400,7.592404296875,0.31169742345809937,0.16525393724441528,0.16986094415187836
1737750417471472400,7.602472412109375,0.20812897384166718,0.19175665080547333,0.13186295330524445
1737750417481540000,7.6125400390625,0.13479803502559662,0.20297788083553314,0.11758841574192047
1737750417491608300,7.6226083984375,0.0994698628783226,0.18578530848026276,0.12287452071905136
1737750417501676300,7.63267626953125,0.09342794865369797,0.1344558149576187,0.13702869415283203
1737750417511744300,7.642744140625,0.10874246060848236,0.0656871348619461,0.14258164167404175
1737750417521812200,7.652812255859375,0.11740891635417938,0.02022484503686428,0.13009461760520935
1737750417531880400,7.66288037109375,0.09991434961557388,0.01979421079158783,0.10983515530824661
1737750417541948400,7.672948486328125,0.036909282207489014,0.04556375741958618,0.07564789056777954
1737750417552016400,7.683016357421875,-0.07255516201257706,0.056840114295482635,0.0024314660113304853
1737750417562084000,7.693083984375,-0.20400932431221008,0.053958307951688766,-0.05264723300933838
1737750417572152300,7.70315234375,-0.30423739552497864,0.043014045804739,-0.0828980803489685
1737750417582219300,7.71321923828125,-0.3597155511379242,0.031498536467552185,-0.10638662427663803
1737750417592287200,7.723287353515625,-0.3637036383152008,0.04200044646859169,-0.10612350702285767
1737750417602355200,7.733355224609375,-0.2993438243865967,0.0741991326212883,-0.07230748981237411
1737750417612423400,7.74342333984375,-0.20016105473041534,0.128012552857399,-0.04559438303112984
1737750417622491400,7.753491455078125,-0.1438024491071701,0.17347592115402222,-0.05693944916129112
1737750417632559400,7.763559326171875,-0.1451747715473175,0.205397367477417,-0.06420028954744339
1737750417642627300,7.77362744140625,-0.19847607612609863,0.22724087536334991,-0.07316209375858307
1737750417652695300,7.7836953125,-0.2771439850330353,0.22816845774650574,-0.09718407690525055
1737750417662763300,7.79376318359375,-0.3605632483959198,0.22875913977622986,-0.11730585247278214
1737750417672831200,7.803831298828125,-0.4344622492790222,0.2611818015575409,-0.1349562257528305
1737750417682899200,7.813899169921875,-0.511435329914093,0.2912885546684265,-0.1478957235813141
1737750417692967400,7.823967529296875,-0.5836703777313232,0.3039167523384094,-0.13861380517482758
1737750417703035400,7.834035400390625,-0.6573299169540405,0.2849790155887604,-0.1234351173043251
1737750417713102300,7.844102294921875,-0.7134590148925781,0.2071790248155594,-0.10973475128412247
1737750417723170300,7.85417041015625,-0.7443026304244995,0.07808122038841248,-0.08582888543605804
1737750417733238300,7.86423828125,-0.7590933442115784,-0.07497330754995346,-0.07203051447868347
1737750417743306500,7.874306396484375,-0.7666335105895996,-0.2549782395362854,-0.09356217831373215
1737750417753374500,7.88437451171875,-0.773396372795105,-0.43090584874153137,-0.14804193377494812
1737750417763442200,7.894442138671875,-0.772942841053009,-0.608801007270813,-0.20963019132614136
1737750417773510100,7.90451025390625,-0.7840713858604431,-0.7738264799118042,-0.2659246325492859
1737750417783578400,7.914578369140625,-0.7855063080787659,-0.9149218201637268,-0.3254601061344147
1737750417793646300,7.924646240234375,-0.7616608738899231,-1.0229878425598145,-0.3775941729545593
1737750417803714300,7.93471435546875,-0.7110834717750549,-1.1399847269058228,-0.4400727152824402
1737750417813782300,7.9447822265625,-0.6338459253311157,-1.2251896858215332,-0.5003427267074585
1737750417823850500,7.9548505859375,-0.5349611639976501,-1.267717719078064,-0.5625618696212769
1737750417833918200,7.964918212890625,-0.4243195950984955,-1.2567273378372192,-0.6323601603507996
1737750417843986200,7.974986083984375,-0.32702764868736267,-1.205030083656311,-0.6851075291633606
1737750417854054100,7.98505419921875,-0.26628386974334717,-1.1636083126068115,-0.7258445620536804
1737750417864121000,7.99512109375,-0.2620907425880432,-1.1743685007095337,-0.7021610736846924
1737750417874189300,8.005189208984374,-0.2811480462551117,-1.2439649105072021,-0.594071626663208
1737750417884257300,8.01525732421875,-0.3153366446495056,-1.3846791982650757,-0.454653799533844
1737750417894325200,8.0253251953125,-0.3782162666320801,-1.613512396812439,-0.36628106236457825
1737750417904393200,8.035393310546874,-0.5341086983680725,-1.8423316478729248,-0.37472328543663025
1737750417914461400,8.04546142578125,-0.8073335289955139,-2.008697986602783,-0.460444837808609
1737750417924529400,8.055529296875,-1.1470741033554077,-2.0706233978271484,-0.5465485453605652
1737750417934597400,8.065597412109375,-1.4164421558380127,-2.0119924545288086,-0.49286535382270813
1737750417944665000,8.0756650390625,-1.5264637470245361,-1.8926938772201538,-0.2936188280582428
1737750417954733300,8.0857333984375,-1.4270421266555786,-1.7165601253509521,-0.0397559329867363
1737750417964801300,8.09580126953125,-1.1296929121017456,-1.4412378072738647,0.16119128465652466
1737750417974869200,8.105869140625,-0.7192438840866089,-1.0531352758407593,0.22437158226966858
1737750417984937200,8.115937255859375,-0.33886539936065674,-0.5420579314231873,0.15031519532203674
1737750417995005400,8.12600537109375,-0.07864714413881302,0.020786771550774574,0.015029283240437508
1737750418005073400,8.136073486328126,0.03002660907804966,0.4127945005893707,-0.09447510540485382
1737750418015141400,8.146141357421875,-0.004457332659512758,0.5471003651618958,-0.15881095826625824
1737750418025208300,8.156208251953124,-0.12689509987831116,0.5140433311462402,-0.18900853395462036
1737750418035276300,8.1662763671875,-0.27895572781562805,0.40684232115745544,-0.21190239489078522
1737750418045344300,8.17634423828125,-0.41395723819732666,0.2614060342311859,-0.2316713035106659
1737750418055412200,8.186412109375,-0.49138304591178894,0.07735390961170197,-0.24963033199310303
1737750418065480200,8.196480224609376,-0.4754163324832916,-0.10116070508956909,-0.25635722279548645
1737750418075548400,8.20654833984375,-0.3778146803379059,-0.2653701603412628,-0.25016963481903076
1737750418085616400,8.216616455078125,-0.23057036101818085,-0.41475483775138855,-0.24916668236255646
1737750418095684400,8.226684326171876,-0.09227613359689713,-0.5251689553260803,-0.23620960116386414
1737750418105752300,8.23675244140625,-0.007890147157013416,-0.5929498672485352,-0.20198744535446167
1737750418115820300,8.2468203125,0.010219880379736423,-0.6374643445014954,-0.1482160985469818
1737750418125888300,8.25688818359375,-0.011211375705897808,-0.6859477162361145,-0.0750683844089508
1737750418135956200,8.266956298828125,-0.05343819037079811,-0.7478819489479065,0.012944294139742851
1737750418146024200,8.277024169921875,-0.09796438366174698,-0.8048509359359741,0.08498280495405197
1737750418156092400,8.287092529296874,-0.13100115954875946,-0.861033022403717,0.13544172048568726
1737750418166160400,8.297160400390625,-0.15128618478775024,-0.9139819741249084,0.15447719395160675
1737750418176227300,8.307227294921875,-0.1601225584745407,-0.9784184694290161,0.1539275199174881
1737750418186295300,8.31729541015625,-0.17472253739833832,-1.0246267318725586,0.1302589327096939
1737750418196363300,8.32736328125,-0.1962672472000122,-1.0619988441467285,0.11994744092226028
1737750418206431500,8.337431396484375,-0.2245739847421646,-1.0894325971603394,0.11129456758499146
1737750418216499500,8.34749951171875,-0.24492666125297546,-1.1042137145996094,0.10399564355611801
1737750418226567200,8.357567138671875,-0.26042118668556213,-1.120316743850708,0.09081032872200012
1737750418236635100,8.36763525390625,-0.2710168659687042,-1.128531813621521,0.07092157751321793
1737750418246703400,8.377703369140624,-0.27893203496932983,-1.1119818687438965,0.05240461975336075
1737750418256771300,8.387771240234375,-0.2961866557598114,-1.0856506824493408,0.04513179138302803
1737750418266839300,8.39783935546875,-0.32487183809280396,-1.0228549242019653,0.02894403412938118
1737750418276907300,8.4079072265625,-0.3733786344528198,-0.9334062337875366,0.012417787685990334
1737750418286975500,8.4179755859375,-0.41217344999313354,-0.815913200378418,0.010831075720489025
1737750418297043200,8.428043212890625,-0.4333477020263672,-0.6993735432624817,0.014679876156151295
1737750418307111200,8.438111083984374,-0.4396660625934601,-0.5888068079948425,0.008101868443191051
1737750418317179100,8.44817919921875,-0.43569448590278625,-0.4872745871543884,-0.0184013769030571
1737750418327247400,8.458247314453125,-0.44321364164352417,-0.410166472196579,-0.06471668183803558
1737750418337314300,8.468314208984374,-0.4715680480003357,-0.38111087679862976,-0.11381658166646957
1737750418347382300,8.47838232421875,-0.492796927690506,-0.3558063209056854,-0.13917919993400574
1737750418357450200,8.4884501953125,-0.49356791377067566,-0.3537071943283081,-0.14140400290489197
1737750418367518500,8.4985185546875,-0.4657684862613678,-0.3262835741043091,-0.12003079801797867
1737750418377586400,8.50858642578125,-0.4121747612953186,-0.27209198474884033,-0.0723908394575119
1737750418387654400,8.518654296875,-0.3434247374534607,-0.16240355372428894,-0.020976921543478966
1737750418397718500,8.528718505859375,-0.2658625841140747,-0.04248807206749916,0.01438000425696373
1737750418407786500,8.538786376953125,-0.1922416090965271,0.07539408653974533,0.03700462356209755
1737750418417854500,8.5488544921875,-0.13520735502243042,0.17130278050899506,0.05344671383500099
1737750418427922400,8.55892236328125,-0.10583268851041794,0.24485449492931366,0.05806330218911171
1737750418437990400,8.568990478515625,-0.1131979301571846,0.2963741421699524,0.06057626008987427
1737750418448058400,8.579058349609374,-0.14547836780548096,0.35235804319381714,0.06567062437534332
1737750418458126600,8.589126708984375,-0.18448808789253235,0.3958275020122528,0.07310377061367035
1737750418468194600,8.599194580078125,-0.2179160863161087,0.41288769245147705,0.08041121810674667
1737750418478262500,8.609262451171874,-0.2415875941514969,0.40768229961395264,0.09182898700237274
1737750418488330200,8.619330322265625,-0.25113368034362793,0.37744608521461487,0.09329372644424438
1737750418498397400,8.6293974609375,-0.25351083278656006,0.3274172842502594,0.09360851347446442
1737750418508465400,8.63946533203125,-0.24360546469688416,0.26803117990493774,0.09182286262512207
1737750418518533400,8.649533447265625,-0.2221638262271881,0.20624583959579468,0.10899945348501205
1737750418528601300,8.659601318359375,-0.19804437458515167,0.13966895639896393,0.13060541450977325
1737750418538669300,8.66966943359375,-0.17818838357925415,0.07757175713777542,0.15387718379497528
1737750418548737500,8.679737548828125,-0.15740400552749634,0.013094230554997921,0.1766381561756134
1737750418558805500,8.689805419921875,-0.1448778212070465,-0.04777258262038231,0.19141070544719696
1737750418568873500,8.69987353515625,-0.14084260165691376,-0.1034422367811203,0.19222430884838104
1737750418578941400,8.70994140625,-0.14342133700847626,-0.1471782624721527,0.19232869148254395
1737750418589009400,8.720009521484375,-0.15177860856056213,-0.1816670000553131,0.19775249063968658
1737750418599077400,8.730077392578124,-0.16469706594944,-0.18653365969657898,0.21302305161952972
1737750418609145300,8.740145263671875,-0.1807015985250473,-0.16998291015625,0.23196426033973694
1737750418619213300,8.75021337890625,-0.1918216347694397,-0.147528737783432,0.24580523371696472
1737750418629281500,8.760281494140624,-0.20536834001541138,-0.10516982525587082,0.24799196422100067
1737750418639349500,8.770349609375,-0.2092895656824112,-0.05944415181875229,0.2495611011981964
1737750418649417500,8.78041748046875,-0.2013019472360611,-0.017824269831180573,0.24965350329875946
1737750418659484400,8.790484375,-0.1837884783744812,0.018974490463733673,0.24088238179683685
1737750418669552400,8.800552490234375,-0.1734282374382019,0.058277156203985214,0.2172156721353531
1737750418679620600,8.81062060546875,-0.174447700381279,0.09648659080266953,0.179246723651886
1737750418689688300,8.820688232421874,-0.1808169186115265,0.11185169965028763,0.14132943749427795
1737750418699756300,8.83075634765625,-0.18566812574863434,0.1168706938624382,0.10735947638750076
1737750418709824300,8.84082421875,-0.18871799111366272,0.11510874330997467,0.08233215659856796
1737750418719892500,8.850892578125,-0.18095940351486206,0.10348963737487793,0.05837702378630638
1737750418729960400,8.86096044921875,-0.17128440737724304,0.112010158598423,0.029162678867578506
1737750418740028400,8.8710283203125,-0.15770787000656128,0.1323298066854477,0.0000010652644277797663
1737750418750096400,8.881096435546874,-0.15119218826293945,0.1629713475704193,-0.030107568949460983
1737750418760164600,8.89116455078125,-0.15280446410179138,0.1961737722158432,-0.05459346994757652
1737750418770232300,8.901232421875,-0.15959446132183075,0.2199435532093048,-0.07640582323074341
1737750418780300300,8.91130029296875,-0.17001061141490936,0.2372884452342987,-0.10398152470588684
1737750418790368300,8.9213681640625,-0.1940094232559204,0.24020381271839142,-0.12921524047851562
1737750418800436500,8.9314365234375,-0.22206449508666992,0.24493545293807983,-0.15783622860908508
1737750418810504400,8.94150439453125,-0.2478524148464203,0.23782187700271606,-0.18260124325752258
1737750418820571400,8.9515712890625,-0.2687622308731079,0.2072991281747818,-0.20426765084266663
1737750418830639400,8.961639404296875,-0.27491092681884766,0.16103948652744293,-0.2281056046485901
1737750418840707600,8.97170751953125,-0.277387410402298,0.11352816224098206,-0.2386498600244522
1737750418850775600,8.981775634765626,-0.2710123360157013,0.07418394833803177,-0.24374981224536896
1737750418860843500,8.991843505859375,-0.2511504590511322,0.04373283311724663,-0.22785021364688873
1737750418870911200,9.0019111328125,-0.2150782197713852,0.025718413293361664,-0.19708296656608582
1737750418880979500,9.0119794921875,-0.15446308255195618,0.015847139060497284,-0.15382897853851318
1737750418891047400,9.02204736328125,-0.08187436312437057,0.00427117757499218,-0.11080827564001083
1737750418901115400,9.032115478515625,-0.010060889646410942,-0.004746285732835531,-0.0683945044875145
1737750418911183400,9.042183349609376,0.054785750806331635,-0.01871110312640667,-0.04476134479045868
1737750418921251600,9.05225146484375,0.09667833894491196,-0.04105662181973457,-0.04854916036128998
1737750418931319600,9.062319580078125,0.12004251778125763,-0.06211503595113754,-0.06208441033959389
1737750418941387500,9.072387451171876,0.12501224875450134,-0.07969003170728683,-0.07353626936674118
1737750418951455200,9.082455322265625,0.10563508421182632,-0.07526066899299622,-0.07677174359560013
1737750418961523500,9.0925234375,0.07348540425300598,-0.041312552988529205,-0.07700636982917786
1737750418971590400,9.10259033203125,0.05128182843327522,0.00987127237021923,-0.0692797377705574
1737750418981658400,9.112658447265625,0.054251521825790405,0.06576250493526459,-0.046485476195812225
1737750418991726300,9.122726318359375,0.08129086345434189,0.09702295064926147,-0.04246676713228226
1737750419001794300,9.132794189453126,0.12471876293420792,0.10546889901161194,-0.04884770140051842
1737750419011862500,9.142862548828125,0.1573036015033722,0.10152342915534973,-0.0534331314265728
1737750419021930500,9.152930419921875,0.1624903827905655,0.08843958377838135,-0.06744428724050522
1737750419031998500,9.16299853515625,0.15179193019866943,0.065789133310318,-0.07433149218559265
1737750419042066400,9.17306640625,0.13707849383354187,0.03473081439733505,-0.07321295887231827
1737750419052134400,9.183134521484375,0.12811268866062164,0.0011515507940202951,-0.07097724080085754
1737750419062202400,9.193202392578126,0.13390986621379852,-0.02684732712805271,-0.09347855299711227
1737750419072270300,9.203270263671875,0.14494094252586365,-0.04954065382480621,-0.144353449344635
1737750419082338300,9.21333837890625,0.15817712247371674,-0.06530363857746124,-0.2194596529006958
1737750419092406500,9.223406494140624,0.1712159514427185,-0.055275239050388336,-0.3049039840698242
1737750419102474500,9.233474609375,0.1821144074201584,-0.0266523826867342,-0.3673929274082184
1737750419112542500,9.24354248046875,0.19762812554836273,0.025918949395418167,-0.40446093678474426
1737750419122609400,9.253609375,0.22200830280780792,0.10926177352666855,-0.417965292930603
1737750419132677400,9.263677490234375,0.25640061497688293,0.22885873913764954,-0.4196992814540863
1737750419142745600,9.27374560546875,0.29274240136146545,0.3566819429397583,-0.42106759548187256
1737750419152813300,9.283813232421876,0.3237850069999695,0.4671346843242645,-0.4253832697868347
1737750419162881300,9.29388134765625,0.33519691228866577,0.5516034960746765,-0.42259547114372253
1737750419172949200,9.30394921875,0.32213810086250305,0.5991643667221069,-0.41947636008262634
1737750419183017500,9.314017578125,0.29641488194465637,0.6093304753303528,-0.4035610556602478
1737750419193085400,9.32408544921875,0.2745833694934845,0.5742981433868408,-0.39020130038261414
1737750419203153400,9.3341533203125,0.2603953778743744,0.5046530365943909,-0.39011767506599426
1737750419213221600,9.3442216796875,0.2514370381832123,0.3973449766635895,-0.41848674416542053
1737750419223289600,9.35428955078125,0.24216416478157043,0.26393577456474304,-0.45394405722618103
1737750419233357300,9.364357421875,0.2389470636844635,0.12388172745704651,-0.48117488622665405
1737750419243425300,9.37442529296875,0.2431737631559372,-0.003640541108325124,-0.49353647232055664
1737750419253493500,9.384493408203125,0.24666917324066162,-0.1235475018620491,-0.4921819865703583
1737750419263561500,9.3945615234375,0.23259222507476807,-0.19805769622325897,-0.4810393154621124
1737750419273628400,9.40462841796875,0.19677351415157318,-0.22573566436767578,-0.48057806491851807
1737750419283696400,9.4146962890625,0.13606463372707367,-0.2266951948404312,-0.4881209433078766
1737750419293764400,9.424764404296875,0.07581912726163864,-0.23144707083702087,-0.49006450176239014
1737750419303832600,9.43483251953125,0.04519011452794075,-0.2553633153438568,-0.47006604075431824
1737750419313900500,9.444900634765625,0.05369012430310249,-0.27593570947647095,-0.41796955466270447
1737750419323968500,9.454968505859375,0.08488666266202927,-0.2873910367488861,-0.3514256775379181
1737750419334036200,9.4650361328125,0.12632811069488525,-0.2823145091533661,-0.284408301115036
1737750419344104400,9.4751044921875,0.1533203125,-0.24420201778411865,-0.25892505049705505
1737750419354172400,9.48517236328125,0.15826579928398132,-0.191947340965271,-0.260468065738678
1737750419364240400,9.495240478515624,0.12948182225227356,-0.11387570202350616,-0.2780334949493408
1737750419374308400,9.505308349609376,0.07090692967176437,-0.028782378882169724,-0.3079650104045868
1737750419384376600,9.51537646484375,-0.0004985437262803316,0.02286962978541851,-0.33677908778190613
1737750419394444500,9.525444580078124,-0.0472378209233284,0.002019474981352687,-0.3733868896961212
1737750419404516400,9.535516357421875,-0.06313742697238922,-0.09908610582351685,-0.40993693470954895
1737750419414584300,9.545584228515626,-0.06681471318006516,-0.2573835849761963,-0.44321390986442566
1737750419424652500,9.555652587890625,-0.06727224588394165,-0.4417899250984192,-0.45512545108795166
1737750419434719500,9.565719482421875,-0.0892246812582016,-0.5906388163566589,-0.43200865387916565
1737750419444787500,9.575787353515626,-0.1320544332265854,-0.6775510311126709,-0.3786349296569824
1737750419454855400,9.58585546875,-0.1698305755853653,-0.6731318235397339,-0.3043212890625
1737750419464923400,9.59592333984375,-0.18522152304649353,-0.6151033639907837,-0.2309892773628235
1737750419474991600,9.60599169921875,-0.17643894255161285,-0.5184282660484314,-0.1458946168422699
1737750419485059600,9.6160595703125,-0.13543133437633514,-0.40550941228866577,-0.063014917075634
1737750419495127600,9.62612744140625,-0.06565091758966446,-0.2784571945667267,0.007592139765620232
1737750419505195300,9.6361953125,0.053467750549316406,-0.1749744713306427,0.06634227186441422
1737750419515263500,9.646263427734375,0.18792729079723358,-0.12072508782148361,0.10834697633981705
1737750419525331500,9.65633154296875,0.30445629358291626,-0.08968248218297958,0.15777765214443207
1737750419535399400,9.6663994140625,0.37768152356147766,-0.05156998336315155,0.22243866324424744
1737750419545467400,9.67646728515625,0.4025442600250244,-0.016829313710331917,0.2937679588794708
1737750419555535600,9.68653564453125,0.3943779468536377,0.010341054759919643,0.35717570781707764
1737750419565603600,9.696603515625,0.37257543206214905,0.020245084539055824,0.40993213653564453
1737750419575671600,9.706671630859375,0.3407658338546753,0.006711432244628668,0.44312602281570435
1737750419585739300,9.7167392578125,0.306568443775177,-0.03255821019411087,0.4548383355140686
1737750419595806500,9.726806396484376,0.2747463285923004,-0.09370039403438568,0.47340086102485657
1737750419605874400,9.73687451171875,0.24691976606845856,-0.19244907796382904,0.5040756464004517
1737750419615942400,9.7469423828125,0.22342243790626526,-0.3145933449268341,0.5356730222702026
1737750419626010400,9.75701025390625,0.18916486203670502,-0.4356444180011749,0.5222136378288269
1737750419636078300,9.767078369140625,0.14593297243118286,-0.5519329309463501,0.47162798047065735
1737750419646146600,9.777146484375,0.08906009793281555,-0.5981704592704773,0.43407368659973145
1737750419656214500,9.787214599609374,-0.009792976081371307,-0.5656967163085938,0.4420389235019684
1737750419666282500,9.797282470703125,-0.14713218808174133,-0.4609777331352234,0.47166019678115845
1737750419676350500,9.8073505859375,-0.30359822511672974,-0.29718002676963806,0.49644890427589417
1737750419686418400,9.81741845703125,-0.49428030848503113,-0.10534773021936417,0.4824281632900238
1737750419696486400,9.827486328125,-0.7193434834480286,0.08842547237873077,0.4111441373825073
1737750419706554400,9.837554443359375,-0.8703998923301697,0.21345874667167664,0.34761443734169006
1737750419716622600,9.84762255859375,-0.9113883376121521,0.23697605729103088,0.3451978862285614
1737750419726690600,9.857690673828126,-0.8386592268943787,0.2206636667251587,0.4163151979446411
1737750419736758500,9.867758544921875,-0.6650118231773376,0.2580861449241638,0.5451006293296814
1737750419746825500,9.877825439453124,-0.4308113157749176,0.36895912885665894,0.7190540432929993
1737750419756893400,9.8878935546875,-0.20931141078472137,0.5344410538673401,0.8849647045135498
1737750419766961700,9.897961669921875,-0.04271230846643448,0.736045777797699,1.0062341690063477
1737750419777029600,9.908029541015624,0.05808594077825546,0.9200174808502197,1.07787024974823
1737750419787097300,9.918097412109375,0.09502025693655014,1.0442349910736084,1.1198786497116089
1737750419797165300,9.928165283203125,0.06528232991695404,1.112671136856079,1.1248817443847656
1737750419807233500,9.938233642578124,-0.010490990243852139,1.1270561218261719,1.0948270559310913
1737750419817301500,9.948301513671876,-0.10273543000221252,1.093919277191162,1.0560592412948608
1737750419827369500,9.958369384765625,-0.1764884889125824,1.007796287536621,0.9998912811279297
1737750419837437400,9.9684375,-0.21564173698425293,0.8715000152587891,0.9395341873168945
1737750419847505700,9.978505615234376,-0.21437488496303558,0.704956591129303,0.871288537979126
1737750419857573600,9.98857373046875,-0.1895848512649536,0.5416776537895203,0.7989813685417175
1737750419867641300,9.998641357421874,-0.16695941984653473,0.392377644777298,0.7094733119010925
1737750419877709300,10.008709228515626,-0.14675243198871613,0.24102753400802612,0.5992634296417236
1737750419887777500,10.018777587890625,-0.10413039475679398,0.07316742092370987,0.465939998626709
1737750419897845500,10.028845458984375,-0.03681180998682976,-0.09015759080648422,0.3274609446525574
1737750419907912400,10.038912353515625,0.05084746703505516,-0.23569215834140778,0.18879175186157227
1737750419917980400,10.04898046875,0.1493026614189148,-0.3404156267642975,0.07895660400390625
1737750419928048400,10.05904833984375,0.24479083716869354,-0.37477201223373413,0.01678190939128399
1737750419938116600,10.06911669921875,0.3175995349884033,-0.33468130230903625,0.0007709851488471031
1737750419948184600,10.0791845703125,0.3734697103500366,-0.23066596686840057,-0.0016466324450448155
1737750419958252500,10.08925244140625,0.41754505038261414,-0.08067221194505692,0.004603806417435408
1737750419968320300,10.0993203125,0.45117250084877014,0.09095067530870438,0.010235327295958996
1737750419978388500,10.109388427734375,0.4799692630767822,0.24673627316951752,0.006401706486940384
1737750419988456400,10.11945654296875,0.504568338394165,0.37828579545021057,-0.007452057208865881
1737750419998524400,10.1295244140625,0.5164743065834045,0.48877155780792236,-0.03142077475786209
1737750420008592400,10.13959228515625,0.5362107157707214,0.572040319442749,-0.0673244446516037
1737750420018660600,10.14966064453125,0.5812548995018005,0.6311917901039124,-0.10187896341085434
1737750420028728600,10.159728515625,0.651090145111084,0.6546372175216675,-0.12876330316066742
1737750420038796500,10.169796630859375,0.7462193369865417,0.6434247493743896,-0.14022022485733032
1737750420048864300,10.1798642578125,0.8524872064590454,0.5760843753814697,-0.15894357860088348
1737750420058932500,10.189932373046876,0.9545512199401855,0.4572213590145111,-0.18967698514461517
1737750420068999400,10.19999951171875,1.0366806983947754,0.2887077033519745,-0.2274206429719925
1737750420079067400,10.2100673828125,1.0667113065719604,0.08158674091100693,-0.26529210805892944
1737750420089135400,10.22013525390625,1.0457199811935425,-0.16310369968414307,-0.30540040135383606
1737750420099203600,10.23020361328125,0.9673733115196228,-0.4342779517173767,-0.3646032512187958
1737750420109271600,10.240271484375,0.8365628123283386,-0.7128041386604309,-0.4406775236129761
1737750420119339500,10.250339599609376,0.6261948943138123,-0.9399568438529968,-0.546559751033783
1737750420129407500,10.260407470703125,0.3247370719909668,-1.0804688930511475,-0.6825413107872009
1737750420139475700,10.270475830078125,-0.022899189963936806,-1.1362190246582031,-0.8256624937057495
1737750420149543400,10.28054345703125,-0.32218310236930847,-1.1470221281051636,-0.9473170042037964
1737750420159611400,10.290611328125,-0.49192100763320923,-1.1334460973739624,-1.017944097518921
1737750420169679400,10.300679443359375,-0.5021467208862305,-1.1051727533340454,-1.0428440570831299
1737750420179747600,10.31074755859375,-0.4071110486984253,-1.0600677728652954,-1.0513736009597778
1737750420189815600,10.320815673828125,-0.25808000564575195,-0.9490329027175903,-1.0605099201202393
1737750420199883500,10.330883544921875,-0.10979893803596497,-0.7597433924674988,-1.0628430843353271
1737750420209951500,10.340951416015624,0.026011360809206963,-0.5407724380493164,-1.0559287071228027
1737750420220019500,10.35101953125,0.13673467934131622,-0.3061356842517853,-1.0249351263046265
1737750420230086700,10.361086669921875,0.23426496982574463,-0.04751931503415108,-0.9705954194068909
1737750420240154600,10.371154541015626,0.3308711349964142,0.19901509582996368,-0.891310453414917
1737750420250222300,10.381222412109375,0.43314850330352783,0.4202241897583008,-0.7977064847946167
1737750420260290300,10.391290283203125,0.5482921600341797,0.631352961063385,-0.7124853134155273
1737750420270358500,10.401358642578124,0.6376789808273315,0.8330008387565613,-0.6293305158615112
1737750420280426500,10.411426513671875,0.6766080260276794,1.0129055976867676,-0.545971691608429
1737750420290494500,10.421494384765625,0.6492682695388794,1.1638849973678589,-0.4734461307525635
1737750420300562400,10.4315625,0.5697148442268372,1.2644987106323242,-0.4176284074783325
1737750420310630700,10.441630615234375,0.4630347490310669,1.2892978191375732,-0.3790450394153595
1737750420320698600,10.45169873046875,0.35107946395874023,1.2173599004745483,-0.3519497811794281
1737750420330766300,10.461766357421874,0.25070706009864807,1.056823492050171,-0.32497355341911316
1737750420340834300,10.471834228515625,0.1684872806072235,0.8198602795600891,-0.31798890233039856
1737750420350902500,10.481902587890625,0.12127476185560226,0.5414935946464539,-0.30318811535835266
1737750420360970500,10.491970458984374,0.09872923791408539,0.2667374312877655,-0.2722528278827667
1737750420371038500,10.50203857421875,0.09493903070688248,0.03773432970046997,-0.23714330792427063
1737750420381106400,10.5121064453125,0.09761230647563934,-0.1225309744477272,-0.1722434014081955
1737750420391174700,10.522174560546874,0.09999796748161316,-0.23617471754550934,-0.0975838154554367
1737750420401237500,10.532237548828125,0.11174890398979187,-0.27973684668540955,-0.009206813760101795
1737750420411305700,10.5423056640625,0.13954031467437744,-0.2784619927406311,0.08359396457672119
1737750420421373700,10.552373779296875,0.20365405082702637,-0.2725207507610321,0.17758864164352417
1737750420431441700,10.562441650390625,0.2849244177341461,-0.2573324739933014,0.2802037000656128
1737750420441509400,10.57250927734375,0.36045750975608826,-0.24958187341690063,0.35727745294570923
1737750420451577600,10.58257763671875,0.42430761456489563,-0.2602022886276245,0.38863828778266907
1737750420461645600,10.5926455078125,0.4800723195075989,-0.2815755009651184,0.3861120045185089
1737750420471713500,10.602713623046874,0.5105609893798828,-0.2698027193546295,0.36615270376205444
1737750420481781500,10.612781494140625,0.5093985199928284,-0.22588665783405304,0.3560928702354431
1737750420491849700,10.622849609375,0.4853443205356598,-0.1548721343278885,0.3770066797733307
1737750420501917700,10.632917724609374,0.46709582209587097,-0.0824650451540947,0.4152355492115021
1737750420511985700,10.642985595703125,0.4813096523284912,-0.02189517952501774,0.46412211656570435
1737750420522053400,10.653053466796875,0.5405988097190857,0.043663058429956436,0.5117551684379578
1737750420532121600,10.66312158203125,0.6441097259521484,0.12450011819601059,0.5467578768730164
1737750420542189600,10.673189453125,0.7786188125610352,0.19763584434986115,0.5603940486907959
1737750420552257500,10.683257568359375,0.9155707955360413,0.2580222189426422,0.5717468857765198
1737750420562324500,10.693324462890626,1.00704824924469,0.3214682936668396,0.6055367588996887
1737750420572392400,10.703392333984375,1.0605109930038452,0.3957827389240265,0.657652735710144
1737750420582460700,10.713460693359375,1.1076310873031616,0.4771154224872589,0.7218785881996155
1737750420592528600,10.723528564453124,1.1753389835357666,0.5218355059623718,0.7994329929351807
1737750420602596600,10.7335966796875,1.2873408794403076,0.5406813621520996,0.8934285044670105
1737750420612664600,10.74366455078125,1.4398508071899414,0.5380943417549133,1.0008891820907593
1737750420622732500,10.753732666015624,1.6041518449783325,0.5508682131767273,1.1133475303649902
1737750420632800500,10.763800537109375,1.7453457117080688,0.6125534176826477,1.2467719316482544
1737750420642868500,10.773868408203125,1.8229726552963257,0.6872265934944153,1.379570484161377
1737750420652936400,10.7839365234375,1.8664604425430298,0.7698794007301331,1.4803705215454102
1737750420663004700,10.794004638671876,1.8892738819122314,0.7961565256118774,1.5434757471084595
1737750420673072600,10.80407275390625,1.8930870294570923,0.7105036973953247,1.5499416589736938
1737750420683140600,10.814140625,1.8824177980422974,0.485584557056427,1.5150777101516724
1737750420693208600,10.82420849609375,1.8732848167419434,0.3638503849506378,1.4961750507354736
1737750420703276500,10.834276611328125,1.7913185358047485,0.427753746509552,1.5118112564086914
1737750420713344500,10.844344482421874,1.5712463855743408,0.7213664650917053,1.5521008968353271
1737750420723412500,10.85441259765625,1.3043015003204346,1.1961103677749634,1.6516048908233643
1737750420733480400,10.86448046875,1.12448251247406,1.8505781888961792,1.8484220504760742
1737750420743548700,10.874548583984375,1.064429759979248,2.553649663925171,2.068758726119995
1737750420753615600,10.88461572265625,1.0966635942459106,3.080845355987549,2.1155707836151123
1737750420763683600,10.89468359375,1.198304533958435,3.3143656253814697,1.9337403774261475
1737750420773751600,10.90475146484375,1.3518035411834717,3.415113925933838,1.6809544563293457
1737750420783819800,10.91481982421875,1.5492331981658936,3.471982479095459,1.400960087776184
1737750420793887500,10.924887451171875,1.7437609434127808,3.4825098514556885,1.1289582252502441
1737750420803955500,10.93495556640625,1.8365782499313354,3.4542717933654785,0.9041826128959656
1737750420814023400,10.9450234375,1.7332491874694824,3.3429243564605713,0.7168747782707214
1737750420824091600,10.955091552734375,1.4512789249420166,3.143740653991699,0.571894645690918
1737750420834159600,10.96515966796875,1.0716139078140259,2.6915946006774902,0.4111020565032959
1737750420844227600,10.9752275390625,0.7385696768760681,1.9904524087905884,0.17054137587547302
1737750420854295600,10.985295654296875,0.5519776940345764,1.1712745428085327,-0.09972020238637924
1737750420864363800,10.99536376953125,0.5593495965003967,0.3640589118003845,-0.2747766971588135
1737750420874431500,11.005431396484376,0.7031046152114868,-0.3776777982711792,-0.36619022488594055
1737750420884499500,11.01549951171875,0.8337137699127197,-1.0168380737304688,-0.41619136929512024
1737750420894567400,11.0255673828125,0.8605570793151855,-1.4710071086883545,-0.4633929431438446
1737750420904635600,11.0356357421875,0.7891689538955688,-1.6630969047546387,-0.4817695617675781
1737750420914703600,11.04570361328125,0.6483622789382935,-1.552628755569458,-0.43207845091819763
1737750420924771600,11.055771484375,0.5052695870399475,-1.218730092048645,-0.3245637118816376
1737750420934838500,11.065838623046876,0.41941139101982117,-0.7944886088371277,-0.22634153068065643
1737750420944906500,11.075906494140625,0.4345133602619171,-0.34283486008644104,-0.20754040777683258
1737750420954974700,11.085974609375,0.5495355725288391,0.13992327451705933,-0.2730019688606262
1737750420965042700,11.096042724609376,0.6928016543388367,0.6378260254859924,-0.3859037458896637
1737750420975110700,11.106110595703125,0.7580394744873047,1.0695472955703735,-0.5067148804664612
1737750420985178400,11.116178466796875,0.7057341933250427,1.31709885597229,-0.6065700650215149
1737750420995246600,11.12624658203125,0.5833681225776672,1.375085711479187,-0.6830039024353027
1737750421005314600,11.136314453125,0.4639463722705841,1.3060685396194458,-0.7220450043678284
1737750421015382500,11.146382568359375,0.4019772708415985,1.1360453367233276,-0.7370977401733398
1737750421025450500,11.156450439453126,0.40214505791664124,0.9027905464172363,-0.7515480518341064
1737750421035518700,11.166518798828125,0.44448956847190857,0.6859466433525085,-0.7817701101303101
1737750421045586700,11.176586669921875,0.48694276809692383,0.5125468969345093,-0.8150205016136169
1737750421055654400,11.186654296875,0.5043212175369263,0.3622346520423889,-0.8459017276763916
1737750421065722400,11.196722412109375,0.4846247434616089,0.2054639458656311,-0.8364200592041016
1737750421075790600,11.20679052734375,0.4626352787017822,0.0674208551645279,-0.7898120880126953
1737750421085858600,11.216858642578124,0.46091967821121216,-0.005937251262366772,-0.7314470410346985
1737750421095926500,11.226926513671875,0.4904320240020752,0.01733105257153511,-0.675900399684906
1737750421105994500,11.236994384765625,0.5328601598739624,0.17588074505329132,-0.633312463760376
1737750421116061400,11.2470615234375,0.5895714163780212,0.43647292256355286,-0.6126218438148499
1737750421126129700,11.257129638671875,0.6200946569442749,0.7553685903549194,-0.597364068031311
1737750421136197600,11.26719775390625,0.6164970397949219,1.095959186553955,-0.5765978097915649
1737750421146265600,11.277265625,0.6212641000747681,1.3511736392974854,-0.5505776405334473
1737750421156333600,11.28733349609375,0.6506147980690002,1.4689381122589111,-0.5035369396209717
1737750421166401500,11.297401611328125,0.7076668739318848,1.4535099267959595,-0.43115299940109253
1737750421176469500,11.307469482421874,0.7753889560699463,1.3165535926818848,-0.39247244596481323
1737750421186537500,11.317537353515625,0.8335055112838745,1.0999717712402344,-0.40908870100975037
1737750421196605400,11.32760546875,0.8622676134109497,0.8516421318054199,-0.4404383599758148
1737750421206673700,11.337673583984374,0.8635960221290588,0.6092276573181152,-0.4283055365085602
1737750421216741600,11.34774169921875,0.8368525505065918,0.3405996561050415,-0.38550400733947754
1737750421226809600,11.3578095703125,0.8011406064033508,0.07708306610584259,-0.35552453994750977
1737750421236877600,11.367877685546874,0.7771375775337219,-0.1573083996772766,-0.3345921039581299
1737750421246945500,11.377945556640626,0.7717058062553406,-0.3014993965625763,-0.29554057121276855
1737750421257013500,11.388013427734375,0.7754635214805603,-0.3546736538410187,-0.2338809370994568
1737750421267081500,11.39808154296875,0.7878477573394775,-0.35904738306999207,-0.14259177446365356
1737750421277149400,11.4081494140625,0.8022730350494385,-0.3314061462879181,-0.03874552994966507
1737750421287217700,11.4182177734375,0.7999811172485352,-0.2689201533794403,0.027114974334836006
1737750421297285600,11.42828564453125,0.7742664217948914,-0.19630585610866547,0.0443863719701767
1737750421307352600,11.4383525390625,0.739320695400238,-0.10616398602724075,0.019515112042427063
1737750421317420500,11.448420654296875,0.6980059742927551,-0.021705828607082367,0.007391070947051048
1737750421327488800,11.45848876953125,0.6544723510742188,0.025439579039812088,0.01847141794860363
1737750421337556500,11.468556396484376,0.6175990104675293,0.014170413836836815,0.05359451845288277
1737750421347624400,11.47862451171875,0.5829265713691711,-0.056287772953510284,0.11191321909427643
1737750421357692400,11.4886923828125,0.5472433567047119,-0.1973642110824585,0.1655769795179367
1737750421367760600,11.4987607421875,0.5122827291488647,-0.37141910195350647,0.1737920343875885
1737750421377828600,11.50882861328125,0.4807961881160736,-0.5299205780029297,0.19060111045837402
1737750421387896600,11.518896484375,0.4600647985935211,-0.7001751661300659,0.21982210874557495
1737750421397964500,11.528964599609376,0.43006616830825806,-0.902212917804718,0.30496177077293396
1737750421408036400,11.539036376953124,0.40111973881721497,-1.1269861459732056,0.41455963253974915
1737750421418104300,11.549104248046875,0.37239328026771545,-1.3289834260940552,0.482820987701416
1737750421428172300,11.55917236328125,0.3140048086643219,-1.4122780561447144,0.5034820437431335
1737750421438240500,11.569240478515624,0.22351165115833282,-1.3507825136184692,0.47266846895217896
1737750421448308500,11.57930859375,0.1046915277838707,-1.1984189748764038,0.4415361285209656
1737750421458376400,11.58937646484375,-0.036133501678705215,-1.0876799821853638,0.3870190978050232
1737750421468444400,11.5994443359375,-0.1663740575313568,-1.046927809715271,0.3471052348613739
1737750421478512600,11.6095126953125,-0.2538573145866394,-1.034403681755066,0.33177927136421204
1737750421488580400,11.619580322265625,-0.27241554856300354,-0.9697104692459106,0.3067985475063324
1737750421498648300,11.6296484375,-0.22287409007549286,-0.8005874752998352,0.26698777079582214
1737750421508715300,11.63971533203125,-0.15948793292045593,-0.5197275876998901,0.24596822261810303
1737750421518783200,11.649783203125,-0.12618643045425415,-0.24091647565364838,0.20514249801635742
1737750421528851500,11.6598515625,-0.1424357146024704,-0.026101907715201378,0.10331360250711441
1737750421538919400,11.66991943359375,-0.20195762813091278,0.09690577536821365,-0.021644841879606247
1737750421548987400,11.6799873046875,-0.26603248715400696,0.132102370262146,-0.11337023228406906
1737750421559055400,11.690055419921874,-0.3047012984752655,0.09376244246959686,-0.16956639289855957
1737750421569123600,11.70012353515625,-0.3249772787094116,0.013337642885744572,-0.1415209174156189
1737750421579191600,11.710191650390625,-0.3462679386138916,-0.13705238699913025,-0.060258813202381134
1737750421589259300,11.72025927734375,-0.37299835681915283,-0.31784242391586304,-0.0005126585019752383
1737750421599327200,11.7303271484375,-0.39700594544410706,-0.3926500678062439,0.034213628619909286
1737750421609395500,11.7403955078125,-0.40779998898506165,-0.33825740218162537,0.04993506893515587
1737750421619463400,11.75046337890625,-0.4109289348125458,-0.24630698561668396,0.02666143886744976
1737750421629531400,11.760531494140626,-0.410457044839859,-0.18574057519435883,-0.028325913473963737
1737750421639599400,11.770599365234375,-0.4240354299545288,-0.14099626243114471,-0.06302370876073837
1737750421649667600,11.78066748046875,-0.433067262172699,-0.09587805718183517,-0.08449357748031616
1737750421659735600,11.790735595703126,-0.430035799741745,-0.04084303602576256,-0.08729416131973267
1737750421669803300,11.80080322265625,-0.42058342695236206,0.0432547964155674,-0.08825848996639252
1737750421679871200,11.810871337890624,-0.4072687029838562,0.14704883098602295,-0.09219597280025482
1737750421689939500,11.820939453125,-0.40628838539123535,0.2589958906173706,-0.06900649517774582
1737750421700006400,11.83100634765625,-0.4329681992530823,0.36115899682044983,-0.037630464881658554
1737750421710074400,11.841074462890624,-0.4918741285800934,0.4153710901737213,-0.04229818657040596
1737750421720142300,11.851142333984376,-0.5532757043838501,0.41467416286468506,-0.09989330917596817
1737750421730210600,11.86121044921875,-0.5962514281272888,0.4004581868648529,-0.15946635603904724
1737750421740278500,11.871278564453124,-0.6019750833511353,0.36615189909935,-0.2161855548620224
1737750421750346500,11.881346435546876,-0.5795975923538208,0.28961822390556335,-0.2521640658378601
1737750421760414500,11.89141455078125,-0.5314084887504578,0.1921747624874115,-0.22528664767742157
1737750421770482400,11.901482421875,-0.48159804940223694,0.07834673672914505,-0.16075612604618073
1737750421780550400,11.91155029296875,-0.4454704225063324,-0.0436159186065197,-0.09675983339548111
1737750421790618400,11.921618408203125,-0.4322344958782196,-0.17150837182998657,-0.03844885528087616
1737750421800686300,11.931686279296875,-0.45539388060569763,-0.29584789276123047,0.015894010663032532
1737750421810754600,11.941754638671876,-0.5091857314109802,-0.44387465715408325,0.04140309989452362
1737750421820822500,11.951822509765625,-0.5760105848312378,-0.5824975371360779,0.049964096397161484
1737750421830890500,11.961890380859375,-0.665800929069519,-0.669536292552948,0.07181213796138763
1737750421840958500,11.97195849609375,-0.778632640838623,-0.7376636862754822,0.08855623006820679
1737750421851026400,11.9820263671875,-0.9149055480957031,-0.843714714050293,0.09242101013660431
1737750421861094400,11.992094482421875,-1.0491360425949097,-0.9714663028717041,0.09492065012454987
1737750421871162400,12.002162353515626,-1.1365649700164795,-1.1006778478622437,0.12748365104198456
1737750421881230300,12.012230224609375,-1.1394736766815186,-1.2531554698944092,0.18364758789539337
1737750421891298600,12.022298583984375,-1.0389717817306519,-1.423527479171753,0.2523025572299957
1737750421901366500,12.032366455078124,-0.8730396032333374,-1.6115362644195557,0.29652169346809387
1737750421911433500,12.04243359375,-0.6949436068534851,-1.7907041311264038,0.3355710804462433
1737750421921501400,12.05250146484375,-0.5605331063270569,-1.9264556169509888,0.37434351444244385
1737750421931569400,12.0625693359375,-0.5007568597793579,-2.0106568336486816,0.4183937907218933
1737750421941637600,12.0726376953125,-0.5114662051200867,-2.032381534576416,0.4684540331363678
1737750421951705300,12.082705322265625,-0.5685763955116272,-2.005892038345337,0.5258027911186218
1737750421961773300,12.092773193359376,-0.6202467679977417,-1.9672414064407349,0.5580869913101196
1737750421971841300,12.10284130859375,-0.6523748636245728,-1.9197330474853516,0.5481440424919128
1737750421981909500,12.112909423828125,-0.6592197418212891,-1.825204849243164,0.5285906195640564
1737750421991977500,12.1229775390625,-0.6610972285270691,-1.6551228761672974,0.5063289999961853
1737750422002045400,12.13304541015625,-0.6932829022407532,-1.4269819259643555,0.4815179109573364
1737750422012113400,12.143113525390625,-0.7618139982223511,-1.1798983812332153,0.46649155020713806
1737750422022181600,12.153181640625,-0.8529282212257385,-0.9535924792289734,0.4815407991409302
1737750422032249300,12.163249267578125,-0.9146067500114441,-0.7554221749305725,0.5409769415855408
1737750422042317300,12.1733173828125,-0.9100990891456604,-0.5956876277923584,0.6367575526237488
1737750422052385300,12.18338525390625,-0.8316117525100708,-0.48062413930892944,0.7437359094619751
1737750422062453500,12.19345361328125,-0.7225611209869385,-0.412436306476593,0.8023550510406494
1737750422072521500,12.203521484375,-0.6116024255752563,-0.36951199173927307,0.7905638813972473
1737750422082589400,12.21358935546875,-0.5414318442344666,-0.3201897144317627,0.7382319569587708
1737750422092657400,12.223657470703126,-0.533639669418335,-0.2888653576374054,0.6540126800537109
1737750422102725600,12.2337255859375,-0.5885170698165894,-0.28696173429489136,0.5728549957275391
1737750422112793300,12.24379345703125,-0.6924546360969543,-0.32889533042907715,0.4921540319919586
1737750422122860500,12.253860595703125,-0.8238821625709534,-0.3889498710632324,0.4313673675060272
1737750422132928300,12.26392822265625,-0.945856511592865,-0.4260181486606598,0.3863655626773834
1737750422142996500,12.27399658203125,-1.0265321731567383,-0.44987207651138306,0.34270381927490234
1737750422153064400,12.284064453125,-1.0496021509170532,-0.5033036470413208,0.2662636339664459
1737750422163132400,12.29413232421875,-1.0288348197937012,-0.5681891441345215,0.179077610373497
1737750422173200400,12.304200439453124,-0.9880545735359192,-0.6346731185913086,0.11971494555473328
1737750422183268600,12.3142685546875,-0.9585084319114685,-0.6750378012657166,0.0979292243719101
1737750422193336600,12.324336669921875,-0.9152342081069946,-0.6509953141212463,0.1206558421254158
1737750422203404500,12.334404541015624,-0.8359172344207764,-0.5413092970848083,0.17020635306835175
1737750422213472300,12.34447216796875,-0.7193392515182495,-0.35586223006248474,0.19427546858787537
1737750422223540500,12.35454052734375,-0.5963230133056641,-0.09942273050546646,0.16527524590492249
1737750422233608400,12.3646083984375,-0.5116528868675232,0.26862427592277527,0.10465317219495773
1737750422243676400,12.374676513671876,-0.5051531791687012,0.6912447810173035,0.041918687522411346
1737750422253744400,12.384744384765625,-0.5377427935600281,1.0867608785629272,0.01073733251541853
1737750422263812600,12.3948125,-0.5693082213401794,1.4034669399261475,-0.0022450448013842106
1737750422273880600,12.404880615234376,-0.5676597356796265,1.6188477277755737,-0.00504003232344985
1737750422283948500,12.414948486328125,-0.5263887047767639,1.757955551147461,0.0057473680935800076
1737750422294016300,12.425016357421875,-0.4416983127593994,1.8354036808013916,0.015339541248977184
1737750422304084500,12.43508447265625,-0.3333294987678528,1.837613582611084,0.020652547478675842
1737750422314152400,12.44515234375,-0.23090219497680664,1.752265453338623,0.011960522271692753
1737750422324220400,12.455220458984375,-0.1763041913509369,1.5698002576828003,-0.024656876921653748
1737750422334288400,12.465288330078126,-0.19873706996440887,1.2892069816589355,-0.0703631117939949
1737750422344356600,12.475356689453125,-0.2501373887062073,0.9052603840827942,-0.11599770933389664
1737750422354423600,12.485423583984375,-0.29280364513397217,0.43311867117881775,-0.14066283404827118
1737750422364491500,12.495491455078126,-0.2821770906448364,-0.0721234604716301,-0.1380593329668045
1737750422374559500,12.5055595703125,-0.19915544986724854,-0.5321578979492188,-0.12242977321147919
1737750422384627500,12.51562744140625,-0.07080599665641785,-0.8793379664421082,-0.11543311923742294
1737750422394695400,12.5256953125,0.07419966161251068,-1.0989638566970825,-0.1080380529165268
1737750422404760000,12.535760009765625,0.2131788581609726,-1.2148797512054443,-0.0896952673792839
1737750422414828300,12.545828369140626,0.35057079792022705,-1.2507877349853516,-0.059656139463186264
1737750422424896300,12.555896240234375,0.48189765214920044,-1.2174891233444214,-0.01739736646413803
1737750422434964200,12.565964111328125,0.6045162677764893,-1.132936716079712,0.03241466358304024
1737750422445032200,12.5760322265625,0.7064287662506104,-0.9668696522712708,0.09002895653247833
1737750422455100400,12.586100341796875,0.777361273765564,-0.7439860105514526,0.13833177089691162
